datetime,AccX,AccY,AccZ
,-0.021,-1.004,0.071
,-0.02,-1.001,0.073
,-0.022,-1.003,0.071
,-0.021,-1.001,0.072
2025-11-13 23:04:47.012,-0.021,-1.004,0.071
2025-11-13 23:04:47.012,-0.02,-1.001,0.073
2025-11-13 23:04:47.012,-0.022,-1.003,0.071
2025-11-13 23:04:47.012,-0.021,-1.001,0.072
,-0.02,-1.001,0.073
,-0.021,-1.003,0.071
,-0.02,-0.999,0.073
,-0.022,-0.987,0.071
2025-11-13 23:04:47.056,-0.02,-1.001,0.073
2025-11-13 23:04:47.056,-0.021,-1.003,0.071
2025-11-13 23:04:47.056,-0.02,-0.999,0.073
2025-11-13 23:04:47.056,-0.022,-0.987,0.071
,-0.02,-1.018,0.074
,-0.02,-1.022,0.075
,-0.022,-1.0,0.069
,-0.018,-0.981,0.074
,-0.022,-0.991,0.069
,-0.021,-1.018,0.075
,-0.02,-1.013,0.072
,-0.022,-0.998,0.07
2025-11-13 23:04:47.158,-0.02,-1.018,0.074
2025-11-13 23:04:47.158,-0.02,-1.022,0.075
2025-11-13 23:04:47.158,-0.022,-1.0,0.069
2025-11-13 23:04:47.158,-0.018,-0.981,0.074
2025-11-13 23:04:47.158,-0.022,-0.991,0.069
2025-11-13 23:04:47.158,-0.021,-1.018,0.075
2025-11-13 23:04:47.158,-0.02,-1.013,0.072
2025-11-13 23:04:47.158,-0.022,-0.998,0.07
,-0.019,-0.984,0.074
,-0.022,-1.004,0.071
,-0.021,-1.017,0.073
,-0.019,-1.009,0.071
2025-11-13 23:04:47.160,-0.019,-0.984,0.074
2025-11-13 23:04:47.160,-0.022,-1.004,0.071
2025-11-13 23:04:47.160,-0.021,-1.017,0.073
2025-11-13 23:04:47.160,-0.019,-1.009,0.071
,-0.021,-0.993,0.07
,-0.019,-0.991,0.073
,-0.021,-1.003,0.071
,-0.021,-1.015,0.073
2025-11-13 23:04:47.200,-0.021,-0.993,0.07
2025-11-13 23:04:47.200,-0.019,-0.991,0.073
2025-11-13 23:04:47.200,-0.021,-1.003,0.071
2025-11-13 23:04:47.200,-0.021,-1.015,0.073
,-0.02,-1.003,0.072
,-0.021,-0.993,0.072
,-0.02,-0.995,0.074
,-0.022,-1.007,0.07
,-0.02,-1.015,0.073
,-0.02,-1.003,0.073
,-0.021,-0.995,0.072
,-0.02,-1.0,0.072
,-0.022,-1.007,0.072
,-0.021,-1.009,0.073
,-0.019,-1.0,0.071
,-0.021,-0.997,0.07
2025-11-13 23:04:47.333,-0.02,-1.003,0.072
2025-11-13 23:04:47.333,-0.021,-0.993,0.072
2025-11-13 23:04:47.333,-0.02,-0.995,0.074
2025-11-13 23:04:47.333,-0.022,-1.007,0.07
2025-11-13 23:04:47.333,-0.02,-1.015,0.073
2025-11-13 23:04:47.333,-0.02,-1.003,0.073
2025-11-13 23:04:47.333,-0.021,-0.995,0.072
2025-11-13 23:04:47.333,-0.02,-1.0,0.072
2025-11-13 23:04:47.333,-0.022,-1.007,0.072
2025-11-13 23:04:47.333,-0.021,-1.009,0.073
2025-11-13 23:04:47.333,-0.019,-1.0,0.071
2025-11-13 23:04:47.333,-0.021,-0.997,0.07
,-0.02,-1.003,0.073
,-0.021,-1.009,0.071
,-0.021,-1.007,0.073
,-0.021,-0.998,0.072
,-0.021,-0.997,0.072
,-0.021,-1.003,0.074
,-0.021,-1.009,0.071
,-0.02,-1.004,0.073
,-0.021,-0.999,0.072
,-0.022,-1.0,0.071
,-0.02,-1.004,0.072
,-0.021,-1.006,0.07
2025-11-13 23:04:47.475,-0.02,-1.003,0.073
2025-11-13 23:04:47.475,-0.021,-1.009,0.071
2025-11-13 23:04:47.475,-0.021,-1.007,0.073
2025-11-13 23:04:47.475,-0.021,-0.998,0.072
2025-11-13 23:04:47.475,-0.021,-0.997,0.072
2025-11-13 23:04:47.476,-0.021,-1.003,0.074
2025-11-13 23:04:47.476,-0.021,-1.009,0.071
2025-11-13 23:04:47.476,-0.02,-1.004,0.073
2025-11-13 23:04:47.476,-0.021,-0.999,0.072
2025-11-13 23:04:47.476,-0.022,-1.0,0.071
2025-11-13 23:04:47.476,-0.02,-1.004,0.072
2025-11-13 23:04:47.476,-0.021,-1.006,0.07
,-0.021,-1.002,0.072
,-0.021,-0.998,0.072
,-0.021,-0.999,0.072
,-0.021,-1.005,0.073
2025-11-13 23:04:47.490,-0.021,-1.002,0.072
2025-11-13 23:04:47.490,-0.021,-0.998,0.072
2025-11-13 23:04:47.490,-0.021,-0.999,0.072
2025-11-13 23:04:47.490,-0.021,-1.005,0.073
,-0.021,-1.005,0.072
,-0.021,-1.002,0.073
,-0.021,-1.0,0.073
,-0.021,-1.004,0.071
2025-11-13 23:04:47.523,-0.021,-1.005,0.072
2025-11-13 23:04:47.523,-0.021,-1.002,0.073
2025-11-13 23:04:47.523,-0.021,-1.0,0.073
2025-11-13 23:04:47.523,-0.021,-1.004,0.071
,-0.021,-1.006,0.073
,-0.022,-1.004,0.072
,-0.021,-1.0,0.073
,-0.021,-1.0,0.071
,-0.022,-1.004,0.072
,-0.021,-1.006,0.074
,-0.021,-1.003,0.072
,-0.021,-1.002,0.072
2025-11-13 23:04:47.624,-0.021,-1.006,0.073
2025-11-13 23:04:47.624,-0.022,-1.004,0.072
2025-11-13 23:04:47.624,-0.021,-1.0,0.073
2025-11-13 23:04:47.624,-0.021,-1.0,0.071
2025-11-13 23:04:47.624,-0.022,-1.004,0.072
2025-11-13 23:04:47.625,-0.021,-1.006,0.074
2025-11-13 23:04:47.625,-0.021,-1.003,0.072
2025-11-13 23:04:47.625,-0.021,-1.002,0.072
,-0.021,-1.0,0.073
,-0.022,-1.004,0.072
,-0.02,-1.005,0.074
,-0.02,-1.001,0.072
2025-11-13 23:04:47.640,-0.021,-1.0,0.073
2025-11-13 23:04:47.640,-0.022,-1.004,0.072
2025-11-13 23:04:47.640,-0.02,-1.005,0.074
2025-11-13 23:04:47.640,-0.02,-1.001,0.072
,-0.021,-1.001,0.071
,-0.021,-1.003,0.073
,-0.021,-1.005,0.072
,-0.02,-1.004,0.073
,-0.021,-1.002,0.071
,-0.022,-1.002,0.073
,-0.021,-1.004,0.071
,-0.021,-1.005,0.072
,-0.021,-1.003,0.072
,-0.021,-1.002,0.072
,-0.021,-1.002,0.072
,-0.019,-1.003,0.072
2025-11-13 23:04:47.783,-0.021,-1.001,0.071
2025-11-13 23:04:47.784,-0.021,-1.003,0.073
2025-11-13 23:04:47.784,-0.021,-1.005,0.072
2025-11-13 23:04:47.784,-0.02,-1.004,0.073
2025-11-13 23:04:47.784,-0.021,-1.002,0.071
2025-11-13 23:04:47.784,-0.022,-1.002,0.073
2025-11-13 23:04:47.784,-0.021,-1.004,0.071
2025-11-13 23:04:47.784,-0.021,-1.005,0.072
2025-11-13 23:04:47.784,-0.021,-1.003,0.072
2025-11-13 23:04:47.784,-0.021,-1.002,0.072
2025-11-13 23:04:47.784,-0.021,-1.002,0.072
2025-11-13 23:04:47.784,-0.019,-1.003,0.072
,-0.022,-1.004,0.072
,-0.021,-1.002,0.073
,-0.021,-1.003,0.071
,-0.023,-1.003,0.072
2025-11-13 23:04:47.790,-0.022,-1.004,0.072
2025-11-13 23:04:47.790,-0.021,-1.002,0.073
2025-11-13 23:04:47.790,-0.021,-1.003,0.071
2025-11-13 23:04:47.790,-0.023,-1.003,0.072
,-0.021,-1.003,0.072
,-0.022,-1.004,0.072
,-0.021,-1.003,0.073
,-0.021,-1.001,0.072
,-0.021,-1.001,0.073
,-0.02,-1.003,0.072
,-0.021,-1.003,0.071
,-0.021,-1.003,0.073
,-0.021,-1.003,0.073
,-0.022,-1.003,0.073
,-0.02,-1.003,0.073
,-0.021,-1.0,0.071
2025-11-13 23:04:47.933,-0.021,-1.003,0.072
2025-11-13 23:04:47.933,-0.022,-1.004,0.072
2025-11-13 23:04:47.933,-0.021,-1.003,0.073
2025-11-13 23:04:47.933,-0.021,-1.001,0.072
2025-11-13 23:04:47.933,-0.021,-1.001,0.073
2025-11-13 23:04:47.933,-0.02,-1.003,0.072
2025-11-13 23:04:47.933,-0.021,-1.003,0.071
2025-11-13 23:04:47.933,-0.021,-1.003,0.073
2025-11-13 23:04:47.933,-0.021,-1.003,0.073
2025-11-13 23:04:47.933,-0.022,-1.003,0.073
2025-11-13 23:04:47.933,-0.02,-1.003,0.073
2025-11-13 23:04:47.933,-0.021,-1.0,0.071
,-0.021,-1.001,0.073
,-0.021,-1.001,0.072
,-0.022,-1.001,0.07
,-0.02,-1.0,0.073
2025-11-13 23:04:47.977,-0.021,-1.001,0.073
2025-11-13 23:04:47.977,-0.021,-1.001,0.072
2025-11-13 23:04:47.977,-0.022,-1.001,0.07
2025-11-13 23:04:47.977,-0.02,-1.0,0.073
,-0.022,-1.001,0.072
,-0.022,-1.002,0.072
,-0.021,-1.001,0.072
,-0.021,-1.001,0.072
,-0.02,-1.002,0.071
,-0.021,-1.001,0.071
,-0.021,-1.003,0.072
,-0.02,-1.004,0.072
2025-11-13 23:04:48.079,-0.022,-1.001,0.072
2025-11-13 23:04:48.079,-0.022,-1.002,0.072
2025-11-13 23:04:48.079,-0.021,-1.001,0.072
2025-11-13 23:04:48.079,-0.021,-1.001,0.072
2025-11-13 23:04:48.079,-0.02,-1.002,0.071
2025-11-13 23:04:48.079,-0.021,-1.001,0.071
2025-11-13 23:04:48.079,-0.021,-1.003,0.072
2025-11-13 23:04:48.079,-0.02,-1.004,0.072
,-0.021,-1.003,0.07
,-0.02,-1.001,0.073
,-0.021,-1.001,0.072
,-0.021,-1.002,0.073
2025-11-13 23:04:48.094,-0.021,-1.003,0.07
2025-11-13 23:04:48.094,-0.02,-1.001,0.073
2025-11-13 23:04:48.094,-0.021,-1.001,0.072
2025-11-13 23:04:48.094,-0.021,-1.002,0.073
,-0.02,-1.0,0.072
,-0.021,-1.0,0.073
,-0.02,-1.001,0.073
,-0.021,-1.0,0.072
,-0.021,-1.001,0.072
,-0.021,-1.003,0.072
,-0.022,-1.002,0.072
,-0.021,-1.001,0.073
,-0.021,-1.0,0.072
,-0.021,-1.0,0.071
,-0.021,-1.001,0.072
,-0.022,-1.002,0.072
2025-11-13 23:04:48.221,-0.02,-1.0,0.072
2025-11-13 23:04:48.221,-0.021,-1.0,0.073
2025-11-13 23:04:48.221,-0.02,-1.001,0.073
2025-11-13 23:04:48.221,-0.021,-1.0,0.072
2025-11-13 23:04:48.221,-0.021,-1.001,0.072
2025-11-13 23:04:48.221,-0.021,-1.003,0.072
2025-11-13 23:04:48.221,-0.022,-1.002,0.072
2025-11-13 23:04:48.221,-0.021,-1.001,0.073
2025-11-13 23:04:48.221,-0.021,-1.0,0.072
2025-11-13 23:04:48.221,-0.021,-1.0,0.071
2025-11-13 23:04:48.221,-0.021,-1.001,0.072
2025-11-13 23:04:48.221,-0.022,-1.002,0.072
,-0.02,-1.002,0.073
,-0.021,-1.0,0.071
,-0.022,-1.001,0.072
,-0.02,-1.001,0.073
2025-11-13 23:04:48.254,-0.02,-1.002,0.073
2025-11-13 23:04:48.254,-0.021,-1.0,0.071
2025-11-13 23:04:48.254,-0.022,-1.001,0.072
2025-11-13 23:04:48.254,-0.02,-1.001,0.073
,-0.022,-1.001,0.072
,-0.021,-1.0,0.072
,-0.021,-1.002,0.071
,-0.02,-1.001,0.073
,-0.021,-1.001,0.072
,-0.021,-1.001,0.073
,-0.021,-1.001,0.073
,-0.022,-1.003,0.072
,-0.02,-1.0,0.073
,-0.021,-1.001,0.071
,-0.02,-1.002,0.072
,-0.02,-1.003,0.072
2025-11-13 23:04:48.376,-0.022,-1.001,0.072
2025-11-13 23:04:48.376,-0.021,-1.0,0.072
2025-11-13 23:04:48.376,-0.021,-1.002,0.071
2025-11-13 23:04:48.376,-0.02,-1.001,0.073
2025-11-13 23:04:48.377,-0.021,-1.001,0.072
2025-11-13 23:04:48.377,-0.021,-1.001,0.073
2025-11-13 23:04:48.377,-0.021,-1.001,0.073
2025-11-13 23:04:48.377,-0.022,-1.003,0.072
2025-11-13 23:04:48.377,-0.02,-1.0,0.073
2025-11-13 23:04:48.377,-0.021,-1.001,0.071
2025-11-13 23:04:48.377,-0.02,-1.002,0.072
2025-11-13 23:04:48.377,-0.02,-1.003,0.072
,-0.021,-1.002,0.072
,-0.02,-1.002,0.073
,-0.021,-1.002,0.071
,-0.021,-1.002,0.073
2025-11-13 23:04:48.423,-0.021,-1.002,0.072
2025-11-13 23:04:48.423,-0.02,-1.002,0.073
2025-11-13 23:04:48.423,-0.021,-1.002,0.071
2025-11-13 23:04:48.423,-0.021,-1.002,0.073
,-0.021,-1.002,0.072
,-0.022,-1.003,0.071
,-0.021,-1.002,0.073
,-0.021,-1.002,0.072
,-0.021,-1.003,0.073
,-0.02,-1.002,0.073
,-0.021,-1.005,0.072
,-0.02,-1.002,0.073
2025-11-13 23:04:48.534,-0.021,-1.002,0.072
2025-11-13 23:04:48.534,-0.022,-1.003,0.071
2025-11-13 23:04:48.534,-0.021,-1.002,0.073
2025-11-13 23:04:48.534,-0.021,-1.002,0.072
2025-11-13 23:04:48.534,-0.021,-1.003,0.073
2025-11-13 23:04:48.534,-0.02,-1.002,0.073
2025-11-13 23:04:48.534,-0.021,-1.005,0.072
2025-11-13 23:04:48.534,-0.02,-1.002,0.073
,-0.021,-1.001,0.072
,-0.021,-1.002,0.072
,-0.02,-1.003,0.071
,-0.022,-1.003,0.07
2025-11-13 23:04:48.540,-0.021,-1.001,0.072
2025-11-13 23:04:48.540,-0.021,-1.002,0.072
2025-11-13 23:04:48.540,-0.02,-1.003,0.071
2025-11-13 23:04:48.540,-0.022,-1.003,0.07
,-0.021,-1.003,0.072
,-0.021,-1.002,0.072
,-0.021,-1.004,0.072
,-0.019,-1.003,0.073
2025-11-13 23:04:48.582,-0.021,-1.003,0.072
2025-11-13 23:04:48.582,-0.021,-1.002,0.072
2025-11-13 23:04:48.582,-0.021,-1.004,0.072
2025-11-13 23:04:48.582,-0.019,-1.003,0.073
,-0.021,-1.004,0.071
,-0.021,-1.003,0.072
,-0.02,-1.002,0.071
,-0.021,-1.003,0.072
,-0.02,-1.002,0.072
,-0.022,-1.003,0.071
,-0.021,-1.002,0.072
,-0.021,-1.002,0.072
2025-11-13 23:04:48.684,-0.021,-1.004,0.071
2025-11-13 23:04:48.684,-0.021,-1.003,0.072
2025-11-13 23:04:48.684,-0.02,-1.002,0.071
2025-11-13 23:04:48.684,-0.021,-1.003,0.072
2025-11-13 23:04:48.684,-0.02,-1.002,0.072
2025-11-13 23:04:48.684,-0.022,-1.003,0.071
2025-11-13 23:04:48.684,-0.021,-1.002,0.072
2025-11-13 23:04:48.684,-0.021,-1.002,0.072
,-0.022,-1.003,0.072
,-0.021,-1.003,0.071
,-0.021,-1.003,0.072
,-0.021,-1.003,0.072
2025-11-13 23:04:48.690,-0.022,-1.003,0.072
2025-11-13 23:04:48.690,-0.021,-1.003,0.071
2025-11-13 23:04:48.690,-0.021,-1.003,0.072
2025-11-13 23:04:48.690,-0.021,-1.003,0.072
,-0.02,-1.002,0.073
,-0.022,-1.003,0.07
,-0.02,-1.003,0.074
,-0.021,-1.003,0.072
2025-11-13 23:04:48.725,-0.02,-1.002,0.073
2025-11-13 23:04:48.725,-0.022,-1.003,0.07
2025-11-13 23:04:48.725,-0.02,-1.003,0.074
2025-11-13 23:04:48.725,-0.021,-1.003,0.072
,-0.021,-1.003,0.073
,-0.02,-1.001,0.074
,-0.021,-1.003,0.072
,-0.02,-1.004,0.073
,-0.02,-1.003,0.073
,-0.021,-1.003,0.072
,-0.02,-1.003,0.073
,-0.021,-1.001,0.071
2025-11-13 23:04:48.826,-0.021,-1.003,0.073
2025-11-13 23:04:48.826,-0.02,-1.001,0.074
2025-11-13 23:04:48.826,-0.021,-1.003,0.072
2025-11-13 23:04:48.826,-0.02,-1.004,0.073
2025-11-13 23:04:48.826,-0.02,-1.003,0.073
2025-11-13 23:04:48.826,-0.021,-1.003,0.072
2025-11-13 23:04:48.826,-0.02,-1.003,0.073
2025-11-13 23:04:48.826,-0.021,-1.001,0.071
,-0.021,-1.002,0.072
,-0.021,-1.002,0.072
,-0.022,-1.003,0.073
,-0.021,-1.003,0.073
2025-11-13 23:04:48.843,-0.021,-1.002,0.072
2025-11-13 23:04:48.843,-0.021,-1.002,0.072
2025-11-13 23:04:48.843,-0.022,-1.003,0.073
2025-11-13 23:04:48.843,-0.021,-1.003,0.073
,-0.022,-1.003,0.072
,-0.02,-1.001,0.073
,-0.02,-1.001,0.072
,-0.022,-1.003,0.071
,-0.02,-1.002,0.073
,-0.021,-1.0,0.071
,-0.022,-1.002,0.072
,-0.02,-1.002,0.072
,-0.022,-1.004,0.072
,-0.021,-1.001,0.073
,-0.021,-1.002,0.073
,-0.021,-1.003,0.072
2025-11-13 23:04:48.977,-0.022,-1.003,0.072
2025-11-13 23:04:48.977,-0.02,-1.001,0.073
2025-11-13 23:04:48.977,-0.02,-1.001,0.072
2025-11-13 23:04:48.977,-0.022,-1.003,0.071
2025-11-13 23:04:48.977,-0.02,-1.002,0.073
2025-11-13 23:04:48.977,-0.021,-1.0,0.071
2025-11-13 23:04:48.977,-0.022,-1.002,0.072
2025-11-13 23:04:48.977,-0.02,-1.002,0.072
2025-11-13 23:04:48.977,-0.022,-1.004,0.072
2025-11-13 23:04:48.977,-0.021,-1.001,0.073
2025-11-13 23:04:48.977,-0.021,-1.002,0.073
2025-11-13 23:04:48.977,-0.021,-1.003,0.072
,-0.02,-1.003,0.073
,-0.021,-1.004,0.071
,-0.021,-1.002,0.073
,-0.02,-1.003,0.072
,-0.021,-1.004,0.072
,-0.02,-1.002,0.073
,-0.021,-1.002,0.071
,-0.021,-1.003,0.072
,-0.02,-1.002,0.072
,-0.022,-1.004,0.072
,-0.02,-1.002,0.072
,-0.021,-1.003,0.071
2025-11-13 23:04:49.122,-0.02,-1.003,0.073
2025-11-13 23:04:49.122,-0.021,-1.004,0.071
2025-11-13 23:04:49.122,-0.021,-1.002,0.073
2025-11-13 23:04:49.122,-0.02,-1.003,0.072
2025-11-13 23:04:49.122,-0.021,-1.004,0.072
2025-11-13 23:04:49.122,-0.02,-1.002,0.073
2025-11-13 23:04:49.122,-0.021,-1.002,0.071
2025-11-13 23:04:49.122,-0.021,-1.003,0.072
2025-11-13 23:04:49.122,-0.02,-1.002,0.072
2025-11-13 23:04:49.122,-0.022,-1.004,0.072
2025-11-13 23:04:49.122,-0.02,-1.002,0.072
2025-11-13 23:04:49.122,-0.021,-1.003,0.071
,-0.022,-1.004,0.072
,-0.02,-1.002,0.073
,-0.021,-1.002,0.071
,-0.019,-1.003,0.072
2025-11-13 23:04:49.141,-0.022,-1.004,0.072
2025-11-13 23:04:49.141,-0.02,-1.002,0.073
2025-11-13 23:04:49.141,-0.021,-1.002,0.071
2025-11-13 23:04:49.141,-0.019,-1.003,0.072
,-0.02,-1.004,0.072
,-0.021,-1.004,0.072
,-0.019,-1.001,0.073
,-0.022,-1.002,0.071
,-0.02,-1.003,0.073
,-0.02,-1.002,0.071
,-0.022,-1.003,0.072
,-0.02,-1.001,0.073
,-0.022,-1.002,0.072
,-0.021,-1.003,0.073
,-0.02,-1.0,0.072
,-0.022,-1.0,0.072
2025-11-13 23:04:49.271,-0.02,-1.004,0.072
2025-11-13 23:04:49.271,-0.021,-1.004,0.072
2025-11-13 23:04:49.271,-0.019,-1.001,0.073
2025-11-13 23:04:49.271,-0.022,-1.002,0.071
2025-11-13 23:04:49.271,-0.02,-1.003,0.073
2025-11-13 23:04:49.271,-0.02,-1.002,0.071
2025-11-13 23:04:49.271,-0.022,-1.003,0.072
2025-11-13 23:04:49.271,-0.02,-1.001,0.073
2025-11-13 23:04:49.271,-0.022,-1.002,0.072
2025-11-13 23:04:49.271,-0.021,-1.003,0.073
2025-11-13 23:04:49.271,-0.02,-1.0,0.072
2025-11-13 23:04:49.271,-0.022,-1.0,0.072
,-0.02,-1.001,0.073
,-0.021,-1.005,0.072
,-0.021,-1.004,0.072
,-0.019,-1.003,0.072
2025-11-13 23:04:49.300,-0.02,-1.001,0.073
2025-11-13 23:04:49.300,-0.021,-1.005,0.072
2025-11-13 23:04:49.300,-0.021,-1.004,0.072
2025-11-13 23:04:49.300,-0.019,-1.003,0.072
,-0.022,-1.002,0.072
,-0.021,-1.003,0.072
,-0.021,-1.004,0.073
,-0.022,-1.005,0.071
,-0.019,-1.002,0.072
,-0.021,-1.003,0.072
,-0.019,-1.003,0.073
,-0.02,-1.004,0.073
,-0.021,-1.003,0.071
,-0.019,-1.0,0.073
,-0.021,-1.001,0.072
,-0.021,-1.001,0.073
2025-11-13 23:04:49.421,-0.022,-1.002,0.072
2025-11-13 23:04:49.421,-0.021,-1.003,0.072
2025-11-13 23:04:49.421,-0.021,-1.004,0.073
2025-11-13 23:04:49.421,-0.022,-1.005,0.071
2025-11-13 23:04:49.421,-0.019,-1.002,0.072
2025-11-13 23:04:49.421,-0.021,-1.003,0.072
2025-11-13 23:04:49.421,-0.019,-1.003,0.073
2025-11-13 23:04:49.421,-0.02,-1.004,0.073
2025-11-13 23:04:49.421,-0.021,-1.003,0.071
2025-11-13 23:04:49.421,-0.019,-1.0,0.073
2025-11-13 23:04:49.421,-0.021,-1.001,0.072
2025-11-13 23:04:49.421,-0.021,-1.001,0.073
,-0.02,-1.0,0.073
,-0.023,-1.002,0.071
,-0.019,-1.001,0.074
,-0.021,-1.001,0.072
2025-11-13 23:04:49.441,-0.02,-1.0,0.073
2025-11-13 23:04:49.441,-0.023,-1.002,0.071
2025-11-13 23:04:49.441,-0.019,-1.001,0.074
2025-11-13 23:04:49.441,-0.021,-1.001,0.072
,-0.021,-1.003,0.072
,-0.02,-1.002,0.073
,-0.022,-1.004,0.071
,-0.02,-1.002,0.074
,-0.02,-1.002,0.072
,-0.022,-1.003,0.073
,-0.019,-1.003,0.073
,-0.022,-1.004,0.07
,-0.02,-1.003,0.072
,-0.021,-1.002,0.072
,-0.022,-1.004,0.071
,-0.021,-1.002,0.071
2025-11-13 23:04:49.580,-0.021,-1.003,0.072
2025-11-13 23:04:49.580,-0.02,-1.002,0.073
2025-11-13 23:04:49.580,-0.022,-1.004,0.071
2025-11-13 23:04:49.580,-0.02,-1.002,0.074
2025-11-13 23:04:49.580,-0.02,-1.002,0.072
2025-11-13 23:04:49.580,-0.022,-1.003,0.073
2025-11-13 23:04:49.580,-0.019,-1.003,0.073
2025-11-13 23:04:49.580,-0.022,-1.004,0.07
2025-11-13 23:04:49.580,-0.02,-1.003,0.072
2025-11-13 23:04:49.580,-0.021,-1.002,0.072
2025-11-13 23:04:49.580,-0.022,-1.004,0.071
2025-11-13 23:04:49.580,-0.021,-1.002,0.071
,-0.022,-1.004,0.072
,-0.02,-1.003,0.073
,-0.022,-1.003,0.071
,-0.02,-1.002,0.072
,-0.021,-1.003,0.072
,-0.023,-1.003,0.072
,-0.019,-1.001,0.073
,-0.023,-1.003,0.072
,-0.021,-1.003,0.073
,-0.02,-1.001,0.072
,-0.022,-1.003,0.072
,-0.02,-1.002,0.073
2025-11-13 23:04:49.733,-0.022,-1.004,0.072
2025-11-13 23:04:49.733,-0.02,-1.003,0.073
2025-11-13 23:04:49.733,-0.022,-1.003,0.071
2025-11-13 23:04:49.733,-0.02,-1.002,0.072
2025-11-13 23:04:49.733,-0.021,-1.003,0.072
2025-11-13 23:04:49.733,-0.023,-1.003,0.072
2025-11-13 23:04:49.733,-0.019,-1.001,0.073
2025-11-13 23:04:49.734,-0.023,-1.003,0.072
2025-11-13 23:04:49.734,-0.021,-1.003,0.073
2025-11-13 23:04:49.734,-0.02,-1.001,0.072
2025-11-13 23:04:49.734,-0.022,-1.003,0.072
2025-11-13 23:04:49.734,-0.02,-1.002,0.073
,-0.021,-1.003,0.072
,-0.021,-1.003,0.072
,-0.019,-1.002,0.072
,-0.023,-1.002,0.069
2025-11-13 23:04:49.745,-0.021,-1.003,0.072
2025-11-13 23:04:49.745,-0.021,-1.003,0.072
2025-11-13 23:04:49.745,-0.019,-1.002,0.072
2025-11-13 23:04:49.745,-0.023,-1.002,0.069
,-0.02,-1.003,0.073
,-0.021,-1.003,0.073
,-0.021,-1.002,0.072
,-0.018,-1.0,0.073
,-0.021,-1.002,0.072
,-0.021,-1.004,0.072
,-0.02,-1.002,0.073
,-0.023,-1.002,0.071
,-0.019,-1.001,0.073
,-0.022,-1.003,0.072
,-0.021,-1.004,0.072
,-0.019,-1.0,0.073
2025-11-13 23:04:49.871,-0.02,-1.003,0.073
2025-11-13 23:04:49.871,-0.021,-1.003,0.073
2025-11-13 23:04:49.871,-0.021,-1.002,0.072
2025-11-13 23:04:49.871,-0.018,-1.0,0.073
2025-11-13 23:04:49.871,-0.021,-1.002,0.072
2025-11-13 23:04:49.871,-0.021,-1.004,0.072
2025-11-13 23:04:49.871,-0.02,-1.002,0.073
2025-11-13 23:04:49.871,-0.023,-1.002,0.071
2025-11-13 23:04:49.871,-0.019,-1.001,0.073
2025-11-13 23:04:49.871,-0.022,-1.003,0.072
2025-11-13 23:04:49.871,-0.021,-1.004,0.072
2025-11-13 23:04:49.871,-0.019,-1.0,0.073
,-0.023,-1.002,0.071
,-0.02,-1.001,0.073
,-0.021,-1.003,0.072
,-0.022,-1.004,0.072
2025-11-13 23:04:49.890,-0.023,-1.002,0.071
2025-11-13 23:04:49.890,-0.02,-1.001,0.073
2025-11-13 23:04:49.890,-0.021,-1.003,0.072
2025-11-13 23:04:49.890,-0.022,-1.004,0.072
,-0.019,-1.003,0.072
,-0.023,-1.002,0.071
,-0.021,-1.001,0.073
,-0.021,-1.001,0.073
,-0.022,-1.004,0.072
,-0.019,-1.001,0.073
,-0.021,-1.002,0.071
,-0.021,-1.003,0.073
,-0.019,-1.003,0.073
,-0.022,-1.005,0.072
,-0.019,-1.002,0.073
,-0.021,-1.002,0.072
2025-11-13 23:04:50.023,-0.019,-1.003,0.072
2025-11-13 23:04:50.023,-0.023,-1.002,0.071
2025-11-13 23:04:50.024,-0.021,-1.001,0.073
2025-11-13 23:04:50.024,-0.021,-1.001,0.073
2025-11-13 23:04:50.024,-0.022,-1.004,0.072
2025-11-13 23:04:50.024,-0.019,-1.001,0.073
2025-11-13 23:04:50.024,-0.021,-1.002,0.071
2025-11-13 23:04:50.024,-0.021,-1.003,0.073
2025-11-13 23:04:50.024,-0.019,-1.003,0.073
2025-11-13 23:04:50.024,-0.022,-1.005,0.072
2025-11-13 23:04:50.024,-0.019,-1.002,0.073
2025-11-13 23:04:50.024,-0.021,-1.002,0.072
,-0.021,-1.003,0.073
,-0.019,-1.002,0.073
,-0.023,-1.002,0.072
,-0.021,-1.002,0.073
2025-11-13 23:04:50.072,-0.021,-1.003,0.073
2025-11-13 23:04:50.072,-0.019,-1.002,0.073
2025-11-13 23:04:50.073,-0.023,-1.002,0.072
2025-11-13 23:04:50.073,-0.021,-1.002,0.073
,-0.019,-1.002,0.073
,-0.023,-1.003,0.072
,-0.019,-1.001,0.073
,-0.021,-1.002,0.072
,-0.021,-1.004,0.071
,-0.019,-1.003,0.073
,-0.022,-1.001,0.07
,-0.019,-1.0,0.074
2025-11-13 23:04:50.184,-0.019,-1.002,0.073
2025-11-13 23:04:50.184,-0.023,-1.003,0.072
2025-11-13 23:04:50.184,-0.019,-1.001,0.073
2025-11-13 23:04:50.184,-0.021,-1.002,0.072
2025-11-13 23:04:50.184,-0.021,-1.004,0.071
2025-11-13 23:04:50.184,-0.019,-1.003,0.073
2025-11-13 23:04:50.184,-0.022,-1.001,0.07
2025-11-13 23:04:50.184,-0.019,-1.0,0.074
,-0.021,-1.003,0.072
,-0.023,-1.006,0.073
,-0.021,-1.003,0.073
,-0.022,-1.001,0.071
2025-11-13 23:04:50.191,-0.021,-1.003,0.072
2025-11-13 23:04:50.191,-0.023,-1.006,0.073
2025-11-13 23:04:50.191,-0.021,-1.003,0.073
2025-11-13 23:04:50.191,-0.022,-1.001,0.071
,-0.021,-1.0,0.072
,-0.018,-1.003,0.073
,-0.023,-1.005,0.07
,-0.02,-1.001,0.073
,-0.022,-1.001,0.072
,-0.021,-1.003,0.071
,-0.018,-1.003,0.073
,-0.022,-1.004,0.071
2025-11-13 23:04:50.293,-0.021,-1.0,0.072
2025-11-13 23:04:50.293,-0.018,-1.003,0.073
2025-11-13 23:04:50.293,-0.023,-1.005,0.07
2025-11-13 23:04:50.293,-0.02,-1.001,0.073
2025-11-13 23:04:50.293,-0.022,-1.001,0.072
2025-11-13 23:04:50.293,-0.021,-1.003,0.071
2025-11-13 23:04:50.293,-0.018,-1.003,0.073
2025-11-13 23:04:50.293,-0.022,-1.004,0.071
,-0.02,-1.002,0.073
,-0.02,-1.002,0.072
,-0.022,-1.004,0.071
,-0.019,-1.003,0.073
2025-11-13 23:04:50.311,-0.02,-1.002,0.073
2025-11-13 23:04:50.311,-0.02,-1.002,0.072
2025-11-13 23:04:50.311,-0.022,-1.004,0.071
2025-11-13 23:04:50.311,-0.019,-1.003,0.073
,-0.023,-1.002,0.071
,-0.022,-1.0,0.073
,-0.019,-1.0,0.074
,-0.023,-1.003,0.072
,-0.019,-1.002,0.074
,-0.021,-1.001,0.073
,-0.023,-1.0,0.071
,-0.019,-1.001,0.073
,-0.022,-1.005,0.073
,-0.021,-1.006,0.072
,-0.02,-1.0,0.071
,-0.023,-1.002,0.07
2025-11-13 23:04:50.441,-0.023,-1.002,0.071
2025-11-13 23:04:50.441,-0.022,-1.0,0.073
2025-11-13 23:04:50.441,-0.019,-1.0,0.074
2025-11-13 23:04:50.441,-0.023,-1.003,0.072
2025-11-13 23:04:50.441,-0.019,-1.002,0.074
2025-11-13 23:04:50.441,-0.021,-1.001,0.073
2025-11-13 23:04:50.441,-0.023,-1.0,0.071
2025-11-13 23:04:50.441,-0.019,-1.001,0.073
2025-11-13 23:04:50.441,-0.022,-1.005,0.073
2025-11-13 23:04:50.441,-0.021,-1.006,0.072
2025-11-13 23:04:50.441,-0.02,-1.0,0.071
2025-11-13 23:04:50.441,-0.023,-1.002,0.07
,-0.019,-1.003,0.075
,-0.022,-1.007,0.072
,-0.021,-1.002,0.072
,-0.02,-0.998,0.073
2025-11-13 23:04:50.468,-0.019,-1.003,0.075
2025-11-13 23:04:50.468,-0.022,-1.007,0.072
2025-11-13 23:04:50.468,-0.021,-1.002,0.072
2025-11-13 23:04:50.468,-0.02,-0.998,0.073
,-0.022,-1.002,0.071
,-0.021,-1.005,0.074
,-0.021,-1.005,0.071
,-0.022,-1.003,0.071
2025-11-13 23:04:50.495,-0.022,-1.002,0.071
2025-11-13 23:04:50.495,-0.021,-1.005,0.074
2025-11-13 23:04:50.495,-0.021,-1.005,0.071
2025-11-13 23:04:50.495,-0.022,-1.003,0.071
,-0.019,-1.0,0.074
,-0.022,-1.002,0.072
,-0.02,-1.006,0.072
,-0.019,-1.004,0.073
,-0.023,-1.004,0.071
,-0.018,-1.0,0.074
,-0.021,-1.002,0.072
,-0.022,-1.004,0.072
2025-11-13 23:04:50.605,-0.019,-1.0,0.074
2025-11-13 23:04:50.605,-0.022,-1.002,0.072
2025-11-13 23:04:50.605,-0.02,-1.006,0.072
2025-11-13 23:04:50.605,-0.019,-1.004,0.073
2025-11-13 23:04:50.605,-0.023,-1.004,0.071
2025-11-13 23:04:50.605,-0.018,-1.0,0.074
2025-11-13 23:04:50.605,-0.021,-1.002,0.072
2025-11-13 23:04:50.605,-0.022,-1.004,0.072
,-0.018,-1.002,0.073
,-0.022,-1.002,0.072
,-0.021,-1.0,0.073
,-0.021,-1.002,0.072
2025-11-13 23:04:50.610,-0.018,-1.002,0.073
2025-11-13 23:04:50.610,-0.022,-1.002,0.072
2025-11-13 23:04:50.610,-0.021,-1.0,0.073
2025-11-13 23:04:50.610,-0.021,-1.002,0.072
,-0.022,-1.006,0.072
,-0.018,-1.003,0.075
,-0.022,-1.002,0.071
,-0.022,-1.003,0.072
,-0.019,-1.003,0.073
,-0.022,-1.006,0.071
,-0.019,-1.003,0.073
,-0.021,-1.003,0.071
,-0.022,-1.005,0.072
,-0.019,-1.005,0.074
,-0.022,-1.004,0.071
,-0.02,-1.001,0.073
2025-11-13 23:04:50.751,-0.022,-1.006,0.072
2025-11-13 23:04:50.751,-0.018,-1.003,0.075
2025-11-13 23:04:50.751,-0.022,-1.002,0.071
2025-11-13 23:04:50.751,-0.022,-1.003,0.072
2025-11-13 23:04:50.751,-0.019,-1.003,0.073
2025-11-13 23:04:50.751,-0.022,-1.006,0.071
2025-11-13 23:04:50.751,-0.019,-1.003,0.073
2025-11-13 23:04:50.751,-0.021,-1.003,0.071
2025-11-13 23:04:50.751,-0.022,-1.005,0.072
2025-11-13 23:04:50.751,-0.019,-1.005,0.074
2025-11-13 23:04:50.751,-0.022,-1.004,0.071
2025-11-13 23:04:50.751,-0.02,-1.001,0.073
,-0.021,-1.001,0.072
,-0.021,-1.005,0.072
,-0.019,-1.004,0.074
,-0.021,-1.004,0.071
2025-11-13 23:04:50.797,-0.021,-1.001,0.072
2025-11-13 23:04:50.797,-0.021,-1.005,0.072
2025-11-13 23:04:50.797,-0.019,-1.004,0.074
2025-11-13 23:04:50.797,-0.021,-1.004,0.071
,-0.021,-1.003,0.072
,-0.019,-1.001,0.073
,-0.022,-1.003,0.07
,-0.02,-1.002,0.072
,-0.021,-1.001,0.071
,-0.022,-1.001,0.071
,-0.018,-1.001,0.073
,-0.022,-1.003,0.072
2025-11-13 23:04:50.898,-0.021,-1.003,0.072
2025-11-13 23:04:50.899,-0.019,-1.001,0.073
2025-11-13 23:04:50.899,-0.022,-1.003,0.07
2025-11-13 23:04:50.899,-0.02,-1.002,0.072
2025-11-13 23:04:50.899,-0.021,-1.001,0.071
2025-11-13 23:04:50.899,-0.022,-1.001,0.071
2025-11-13 23:04:50.899,-0.018,-1.001,0.073
2025-11-13 23:04:50.899,-0.022,-1.003,0.072
,-0.02,-1.003,0.073
,-0.022,-1.004,0.071
,-0.018,-1.002,0.074
,-0.021,-1.004,0.071
2025-11-13 23:04:50.915,-0.02,-1.003,0.073
2025-11-13 23:04:50.916,-0.022,-1.004,0.071
2025-11-13 23:04:50.916,-0.018,-1.002,0.074
2025-11-13 23:04:50.916,-0.021,-1.004,0.071
,-0.021,-1.003,0.073
,-0.019,-1.0,0.072
,-0.024,-1.003,0.07
,-0.02,-1.004,0.073
,-0.021,-1.003,0.072
,-0.02,-1.002,0.072
,-0.018,-1.0,0.072
,-0.022,-1.001,0.07
,-0.02,-1.002,0.073
,-0.02,-1.002,0.073
,-0.022,-1.004,0.072
,-0.02,-1.001,0.073
2025-11-13 23:04:51.040,-0.021,-1.003,0.073
2025-11-13 23:04:51.040,-0.019,-1.0,0.072
2025-11-13 23:04:51.040,-0.024,-1.003,0.07
2025-11-13 23:04:51.040,-0.02,-1.004,0.073
2025-11-13 23:04:51.040,-0.021,-1.003,0.072
2025-11-13 23:04:51.040,-0.02,-1.002,0.072
2025-11-13 23:04:51.040,-0.018,-1.0,0.072
2025-11-13 23:04:51.040,-0.022,-1.001,0.07
2025-11-13 23:04:51.040,-0.02,-1.002,0.073
2025-11-13 23:04:51.040,-0.02,-1.002,0.073
2025-11-13 23:04:51.040,-0.022,-1.004,0.072
2025-11-13 23:04:51.040,-0.02,-1.001,0.073
,-0.023,-1.003,0.073
,-0.021,-1.002,0.072
,-0.02,-1.002,0.071
,-0.022,-1.003,0.071
2025-11-13 23:04:51.060,-0.023,-1.003,0.073
2025-11-13 23:04:51.060,-0.021,-1.002,0.072
2025-11-13 23:04:51.060,-0.02,-1.002,0.071
2025-11-13 23:04:51.060,-0.022,-1.003,0.071
,-0.019,-1.001,0.073
,-0.021,-1.002,0.071
,-0.022,-1.003,0.072
,-0.02,-1.002,0.073
,-0.022,-1.002,0.072
,-0.02,-1.003,0.073
,-0.021,-1.003,0.073
,-0.022,-1.004,0.071
,-0.02,-1.002,0.072
,-0.022,-1.003,0.071
,-0.021,-1.002,0.072
,-0.02,-1.002,0.073
2025-11-13 23:04:51.191,-0.019,-1.001,0.073
2025-11-13 23:04:51.191,-0.021,-1.002,0.071
2025-11-13 23:04:51.191,-0.022,-1.003,0.072
2025-11-13 23:04:51.191,-0.02,-1.002,0.073
2025-11-13 23:04:51.191,-0.022,-1.002,0.072
2025-11-13 23:04:51.191,-0.02,-1.003,0.073
2025-11-13 23:04:51.191,-0.021,-1.003,0.073
2025-11-13 23:04:51.191,-0.022,-1.004,0.071
2025-11-13 23:04:51.191,-0.02,-1.002,0.072
2025-11-13 23:04:51.191,-0.022,-1.003,0.071
2025-11-13 23:04:51.191,-0.021,-1.002,0.072
2025-11-13 23:04:51.191,-0.02,-1.002,0.073
,-0.023,-1.003,0.071
,-0.02,-1.003,0.073
,-0.021,-1.003,0.072
,-0.021,-1.003,0.073
2025-11-13 23:04:51.242,-0.023,-1.003,0.071
2025-11-13 23:04:51.242,-0.02,-1.003,0.073
2025-11-13 23:04:51.242,-0.021,-1.003,0.072
2025-11-13 23:04:51.242,-0.021,-1.003,0.073
,-0.02,-1.002,0.072
,-0.023,-1.004,0.071
,-0.02,-1.003,0.073
,-0.021,-1.003,0.071
,-0.021,-1.003,0.071
,-0.018,-1.002,0.074
,-0.022,-1.003,0.071
,-0.021,-1.002,0.072
2025-11-13 23:04:51.354,-0.02,-1.002,0.072
2025-11-13 23:04:51.354,-0.023,-1.004,0.071
2025-11-13 23:04:51.354,-0.02,-1.003,0.073
2025-11-13 23:04:51.354,-0.021,-1.003,0.071
2025-11-13 23:04:51.354,-0.021,-1.003,0.071
2025-11-13 23:04:51.354,-0.018,-1.002,0.074
2025-11-13 23:04:51.354,-0.022,-1.003,0.071
2025-11-13 23:04:51.354,-0.021,-1.002,0.072
,-0.02,-1.003,0.072
,-0.022,-1.003,0.072
,-0.019,-1.002,0.074
,-0.021,-1.004,0.071
2025-11-13 23:04:51.360,-0.02,-1.003,0.072
2025-11-13 23:04:51.360,-0.022,-1.003,0.072
2025-11-13 23:04:51.360,-0.019,-1.002,0.074
2025-11-13 23:04:51.360,-0.021,-1.004,0.071
,-0.021,-1.004,0.072
,-0.019,-1.001,0.072
,-0.022,-1.003,0.072
,-0.019,-1.002,0.073
2025-11-13 23:04:51.401,-0.021,-1.004,0.072
2025-11-13 23:04:51.401,-0.019,-1.001,0.072
2025-11-13 23:04:51.401,-0.022,-1.003,0.072
2025-11-13 23:04:51.401,-0.019,-1.002,0.073
,-0.021,-1.003,0.072
,-0.022,-1.003,0.072
,-0.019,-1.001,0.073
,-0.021,-1.002,0.071
,-0.021,-1.003,0.071
,-0.021,-1.003,0.071
,-0.022,-1.003,0.072
,-0.019,-1.0,0.073
2025-11-13 23:04:51.503,-0.021,-1.003,0.072
2025-11-13 23:04:51.503,-0.022,-1.003,0.072
2025-11-13 23:04:51.503,-0.019,-1.001,0.073
2025-11-13 23:04:51.503,-0.021,-1.002,0.071
2025-11-13 23:04:51.503,-0.021,-1.003,0.071
2025-11-13 23:04:51.503,-0.021,-1.003,0.071
2025-11-13 23:04:51.503,-0.022,-1.003,0.072
2025-11-13 23:04:51.503,-0.019,-1.0,0.073
,-0.022,-1.002,0.071
,-0.021,-1.005,0.072
,-0.021,-1.002,0.072
,-0.022,-1.003,0.072
2025-11-13 23:04:51.510,-0.022,-1.002,0.071
2025-11-13 23:04:51.510,-0.021,-1.005,0.072
2025-11-13 23:04:51.510,-0.021,-1.002,0.072
2025-11-13 23:04:51.510,-0.022,-1.003,0.072
,-0.02,-1.001,0.073
,-0.021,-1.003,0.071
,-0.022,-1.004,0.072
,-0.019,-1.003,0.072
2025-11-13 23:04:51.545,-0.02,-1.001,0.073
2025-11-13 23:04:51.545,-0.021,-1.003,0.071
2025-11-13 23:04:51.545,-0.022,-1.004,0.072
2025-11-13 23:04:51.545,-0.019,-1.003,0.072
,-0.022,-1.002,0.071
,-0.02,-1.003,0.073
,-0.019,-1.004,0.072
,-0.021,-1.003,0.073
,-0.019,-1.001,0.074
,-0.022,-1.003,0.072
,-0.021,-1.003,0.072
,-0.019,-1.002,0.073
2025-11-13 23:04:51.646,-0.022,-1.002,0.071
2025-11-13 23:04:51.646,-0.02,-1.003,0.073
2025-11-13 23:04:51.646,-0.019,-1.004,0.072
2025-11-13 23:04:51.646,-0.021,-1.003,0.073
2025-11-13 23:04:51.646,-0.019,-1.001,0.074
2025-11-13 23:04:51.646,-0.022,-1.003,0.072
2025-11-13 23:04:51.646,-0.021,-1.003,0.072
2025-11-13 23:04:51.646,-0.019,-1.002,0.073
,-0.022,-1.004,0.071
,-0.019,-1.002,0.073
,-0.022,-1.003,0.072
,-0.021,-1.004,0.073
2025-11-13 23:04:51.664,-0.022,-1.004,0.071
2025-11-13 23:04:51.664,-0.019,-1.002,0.073
2025-11-13 23:04:51.664,-0.022,-1.003,0.072
2025-11-13 23:04:51.664,-0.021,-1.004,0.073
,-0.02,-1.003,0.073
,-0.023,-1.003,0.07
,-0.02,-1.001,0.072
,-0.021,-1.002,0.071
,-0.022,-1.003,0.071
,-0.018,-1.001,0.073
,-0.021,-1.004,0.071
,-0.021,-1.004,0.073
,-0.02,-1.003,0.072
,-0.023,-1.004,0.071
,-0.019,-1.0,0.073
,-0.021,-1.003,0.072
2025-11-13 23:04:51.791,-0.02,-1.003,0.073
2025-11-13 23:04:51.791,-0.023,-1.003,0.07
2025-11-13 23:04:51.791,-0.02,-1.001,0.072
2025-11-13 23:04:51.791,-0.021,-1.002,0.071
2025-11-13 23:04:51.791,-0.022,-1.003,0.071
2025-11-13 23:04:51.791,-0.018,-1.001,0.073
2025-11-13 23:04:51.791,-0.021,-1.004,0.071
2025-11-13 23:04:51.791,-0.021,-1.004,0.073
2025-11-13 23:04:51.791,-0.02,-1.003,0.072
2025-11-13 23:04:51.791,-0.023,-1.004,0.071
2025-11-13 23:04:51.791,-0.019,-1.0,0.073
2025-11-13 23:04:51.791,-0.021,-1.003,0.072
,-0.022,-1.004,0.073
,-0.019,-1.002,0.073
,-0.024,-1.003,0.071
,-0.019,-1.002,0.073
,-0.02,-1.002,0.072
,-0.022,-1.003,0.072
,-0.02,-1.001,0.073
,-0.021,-1.003,0.071
,-0.021,-1.004,0.072
,-0.02,-1.003,0.073
,-0.022,-1.003,0.07
,-0.02,-1.001,0.074
2025-11-13 23:04:51.950,-0.022,-1.004,0.073
2025-11-13 23:04:51.950,-0.019,-1.002,0.073
2025-11-13 23:04:51.950,-0.024,-1.003,0.071
2025-11-13 23:04:51.950,-0.019,-1.002,0.073
2025-11-13 23:04:51.950,-0.02,-1.002,0.072
2025-11-13 23:04:51.950,-0.022,-1.003,0.072
2025-11-13 23:04:51.950,-0.02,-1.001,0.073
2025-11-13 23:04:51.950,-0.021,-1.003,0.071
2025-11-13 23:04:51.950,-0.021,-1.004,0.072
2025-11-13 23:04:51.950,-0.02,-1.003,0.073
2025-11-13 23:04:51.950,-0.022,-1.003,0.07
2025-11-13 23:04:51.950,-0.02,-1.001,0.074
,-0.023,-1.002,0.071
,-0.021,-1.003,0.071
,-0.019,-1.0,0.072
,-0.023,-1.001,0.07
2025-11-13 23:04:51.969,-0.023,-1.002,0.071
2025-11-13 23:04:51.969,-0.021,-1.003,0.071
2025-11-13 23:04:51.969,-0.019,-1.0,0.072
2025-11-13 23:04:51.969,-0.023,-1.001,0.07
,-0.019,-1.001,0.073
,-0.02,-1.001,0.072
,-0.022,-1.004,0.071
,-0.018,-1.001,0.073
,-0.022,-1.001,0.071
,-0.021,-1.002,0.072
,-0.02,-1.003,0.073
,-0.023,-1.004,0.071
,-0.019,-1.001,0.073
,-0.021,-1.001,0.071
,-0.022,-1.002,0.07
,-0.019,-1.002,0.073
2025-11-13 23:04:52.093,-0.019,-1.001,0.073
2025-11-13 23:04:52.093,-0.02,-1.001,0.072
2025-11-13 23:04:52.093,-0.022,-1.004,0.071
2025-11-13 23:04:52.093,-0.018,-1.001,0.073
2025-11-13 23:04:52.093,-0.022,-1.001,0.071
2025-11-13 23:04:52.093,-0.021,-1.002,0.072
2025-11-13 23:04:52.093,-0.02,-1.003,0.073
2025-11-13 23:04:52.093,-0.023,-1.004,0.071
2025-11-13 23:04:52.093,-0.019,-1.001,0.073
2025-11-13 23:04:52.093,-0.021,-1.001,0.071
2025-11-13 23:04:52.093,-0.022,-1.002,0.07
2025-11-13 23:04:52.093,-0.019,-1.002,0.073
,-0.022,-1.003,0.07
,-0.019,-1.002,0.073
,-0.02,-1.002,0.072
,-0.023,-1.005,0.071
2025-11-13 23:04:52.116,-0.022,-1.003,0.07
2025-11-13 23:04:52.116,-0.019,-1.002,0.073
2025-11-13 23:04:52.116,-0.02,-1.002,0.072
2025-11-13 23:04:52.116,-0.023,-1.005,0.071
,-0.018,-1.003,0.074
,-0.022,-1.002,0.071
,-0.021,-1.001,0.072
,-0.02,-1.002,0.074
2025-11-13 23:04:52.144,-0.018,-1.003,0.074
2025-11-13 23:04:52.144,-0.022,-1.002,0.071
2025-11-13 23:04:52.144,-0.021,-1.001,0.072
2025-11-13 23:04:52.144,-0.02,-1.002,0.074
,-0.023,-1.006,0.071
,-0.019,-1.002,0.075
,-0.022,-1.003,0.071
,-0.017,-1.0,0.074
,-0.022,-1.002,0.071
,-0.02,-1.0,0.072
,-0.019,-1.001,0.072
,-0.022,-1.003,0.071
2025-11-13 23:04:52.245,-0.023,-1.006,0.071
2025-11-13 23:04:52.245,-0.019,-1.002,0.075
2025-11-13 23:04:52.245,-0.022,-1.003,0.071
2025-11-13 23:04:52.245,-0.017,-1.0,0.074
2025-11-13 23:04:52.245,-0.022,-1.002,0.071
2025-11-13 23:04:52.245,-0.02,-1.0,0.072
2025-11-13 23:04:52.245,-0.019,-1.001,0.072
2025-11-13 23:04:52.245,-0.022,-1.003,0.071
,-0.019,-1.0,0.074
,-0.022,-1.003,0.072
,-0.021,-1.003,0.072
,-0.018,-1.002,0.073
2025-11-13 23:04:52.265,-0.019,-1.0,0.074
2025-11-13 23:04:52.265,-0.022,-1.003,0.072
2025-11-13 23:04:52.265,-0.021,-1.003,0.072
2025-11-13 23:04:52.265,-0.018,-1.002,0.073
,-0.022,-1.003,0.071
,-0.019,-1.002,0.073
,-0.021,-1.002,0.072
,-0.021,-1.004,0.071
,-0.019,-1.001,0.073
,-0.022,-1.004,0.071
,-0.021,-1.004,0.072
,-0.019,-1.001,0.074
,-0.023,-1.003,0.071
,-0.019,-1.001,0.074
,-0.021,-1.003,0.071
,-0.022,-1.004,0.072
2025-11-13 23:04:52.404,-0.022,-1.003,0.071
2025-11-13 23:04:52.404,-0.019,-1.002,0.073
2025-11-13 23:04:52.404,-0.021,-1.002,0.072
2025-11-13 23:04:52.404,-0.021,-1.004,0.071
2025-11-13 23:04:52.404,-0.019,-1.001,0.073
2025-11-13 23:04:52.404,-0.022,-1.004,0.071
2025-11-13 23:04:52.404,-0.021,-1.004,0.072
2025-11-13 23:04:52.404,-0.019,-1.001,0.074
2025-11-13 23:04:52.404,-0.023,-1.003,0.071
2025-11-13 23:04:52.404,-0.019,-1.001,0.074
2025-11-13 23:04:52.404,-0.021,-1.003,0.071
2025-11-13 23:04:52.404,-0.022,-1.004,0.072
,-0.02,-1.0,0.074
,-0.023,-1.002,0.072
,-0.02,-1.002,0.073
,-0.021,-1.003,0.072
,-0.023,-1.003,0.071
,-0.019,-0.999,0.074
,-0.022,-1.002,0.073
,-0.021,-1.001,0.072
,-0.019,-1.001,0.073
,-0.023,-1.002,0.07
,-0.02,-1.0,0.073
,-0.021,-1.003,0.072
2025-11-13 23:04:52.552,-0.02,-1.0,0.074
2025-11-13 23:04:52.552,-0.023,-1.002,0.072
2025-11-13 23:04:52.552,-0.02,-1.002,0.073
2025-11-13 23:04:52.552,-0.021,-1.003,0.072
2025-11-13 23:04:52.552,-0.023,-1.003,0.071
2025-11-13 23:04:52.552,-0.019,-0.999,0.074
2025-11-13 23:04:52.552,-0.022,-1.002,0.073
2025-11-13 23:04:52.552,-0.021,-1.001,0.072
2025-11-13 23:04:52.552,-0.019,-1.001,0.073
2025-11-13 23:04:52.552,-0.023,-1.002,0.07
2025-11-13 23:04:52.553,-0.02,-1.0,0.073
2025-11-13 23:04:52.553,-0.021,-1.003,0.072
,-0.023,-1.003,0.071
,-0.018,-1.001,0.074
,-0.023,-1.003,0.072
,-0.02,-1.003,0.072
2025-11-13 23:04:52.560,-0.023,-1.003,0.071
2025-11-13 23:04:52.560,-0.018,-1.001,0.074
2025-11-13 23:04:52.560,-0.023,-1.003,0.072
2025-11-13 23:04:52.560,-0.02,-1.003,0.072
,-0.019,-1.002,0.073
,-0.022,-1.002,0.07
,-0.019,-1.001,0.073
,-0.021,-1.002,0.071
2025-11-13 23:04:52.592,-0.019,-1.002,0.073
2025-11-13 23:04:52.592,-0.022,-1.002,0.07
2025-11-13 23:04:52.592,-0.019,-1.001,0.073
2025-11-13 23:04:52.592,-0.021,-1.002,0.071
,-0.021,-1.003,0.071
,-0.017,-1.001,0.073
,-0.022,-1.003,0.07
,-0.02,-1.001,0.073
,-0.019,-1.003,0.072
,-0.022,-1.004,0.071
,-0.019,-1.002,0.074
,-0.021,-1.002,0.071
2025-11-13 23:04:52.698,-0.021,-1.003,0.071
2025-11-13 23:04:52.698,-0.017,-1.001,0.073
2025-11-13 23:04:52.698,-0.022,-1.003,0.07
2025-11-13 23:04:52.698,-0.02,-1.001,0.073
2025-11-13 23:04:52.698,-0.019,-1.003,0.072
2025-11-13 23:04:52.698,-0.022,-1.004,0.071
2025-11-13 23:04:52.698,-0.019,-1.002,0.074
2025-11-13 23:04:52.698,-0.021,-1.002,0.071
,-0.021,-1.002,0.071
,-0.018,-1.002,0.074
,-0.022,-1.002,0.071
,-0.02,-1.003,0.073
2025-11-13 23:04:52.710,-0.021,-1.002,0.071
2025-11-13 23:04:52.710,-0.018,-1.002,0.074
2025-11-13 23:04:52.710,-0.022,-1.002,0.071
2025-11-13 23:04:52.710,-0.02,-1.003,0.073
,-0.021,-1.002,0.072
,-0.022,-1.004,0.072
,-0.019,-1.001,0.074
,-0.022,-1.003,0.071
,-0.022,-1.004,0.072
,-0.019,-1.001,0.074
,-0.024,-1.003,0.07
,-0.02,-1.0,0.073
,-0.021,-1.002,0.072
,-0.023,-1.002,0.072
,-0.019,-1.001,0.073
,-0.022,-1.002,0.072
2025-11-13 23:04:52.843,-0.021,-1.002,0.072
2025-11-13 23:04:52.843,-0.022,-1.004,0.072
2025-11-13 23:04:52.843,-0.019,-1.001,0.074
2025-11-13 23:04:52.843,-0.022,-1.003,0.071
2025-11-13 23:04:52.843,-0.022,-1.004,0.072
2025-11-13 23:04:52.843,-0.019,-1.001,0.074
2025-11-13 23:04:52.843,-0.024,-1.003,0.07
2025-11-13 23:04:52.843,-0.02,-1.0,0.073
2025-11-13 23:04:52.843,-0.021,-1.002,0.072
2025-11-13 23:04:52.843,-0.023,-1.002,0.072
2025-11-13 23:04:52.844,-0.019,-1.001,0.073
2025-11-13 23:04:52.844,-0.022,-1.002,0.072
,-0.021,-1.001,0.072
,-0.02,-1.0,0.073
,-0.023,-1.003,0.07
,-0.019,-1.001,0.073
,-0.021,-1.001,0.071
,-0.022,-1.002,0.073
,-0.019,-1.0,0.074
,-0.023,-1.002,0.071
,-0.021,-1.0,0.072
,-0.02,-1.0,0.073
,-0.024,-1.003,0.072
,-0.019,-1.003,0.074
2025-11-13 23:04:52.991,-0.021,-1.001,0.072
2025-11-13 23:04:52.991,-0.02,-1.0,0.073
2025-11-13 23:04:52.991,-0.023,-1.003,0.07
2025-11-13 23:04:52.991,-0.019,-1.001,0.073
2025-11-13 23:04:52.991,-0.021,-1.001,0.071
2025-11-13 23:04:52.991,-0.022,-1.002,0.073
2025-11-13 23:04:52.991,-0.019,-1.0,0.074
2025-11-13 23:04:52.991,-0.023,-1.002,0.071
2025-11-13 23:04:52.991,-0.021,-1.0,0.072
2025-11-13 23:04:52.991,-0.02,-1.0,0.073
2025-11-13 23:04:52.991,-0.024,-1.003,0.072
2025-11-13 23:04:52.991,-0.019,-1.003,0.074
,-0.021,-1.004,0.07
,-0.021,-1.003,0.072
,-0.018,-1.0,0.075
,-0.023,-1.004,0.071
2025-11-13 23:04:53.021,-0.021,-1.004,0.07
2025-11-13 23:04:53.021,-0.021,-1.003,0.072
2025-11-13 23:04:53.021,-0.018,-1.0,0.075
2025-11-13 23:04:53.021,-0.023,-1.004,0.071
,-0.021,-1.002,0.073
,-0.021,-1.002,0.072
,-0.022,-1.001,0.071
,-0.019,-1.0,0.073
,-0.023,-1.003,0.071
,-0.022,-1.002,0.072
,-0.019,-1.001,0.074
,-0.023,-1.002,0.07
,-0.019,-1.002,0.072
,-0.02,-1.002,0.072
,-0.022,-1.004,0.071
,-0.017,-1.001,0.074
2025-11-13 23:04:53.143,-0.021,-1.002,0.073
2025-11-13 23:04:53.143,-0.021,-1.002,0.072
2025-11-13 23:04:53.143,-0.022,-1.001,0.071
2025-11-13 23:04:53.143,-0.019,-1.0,0.073
2025-11-13 23:04:53.143,-0.023,-1.003,0.071
2025-11-13 23:04:53.143,-0.022,-1.002,0.072
2025-11-13 23:04:53.143,-0.019,-1.001,0.074
2025-11-13 23:04:53.143,-0.023,-1.002,0.07
2025-11-13 23:04:53.143,-0.019,-1.002,0.072
2025-11-13 23:04:53.143,-0.02,-1.002,0.072
2025-11-13 23:04:53.143,-0.022,-1.004,0.071
2025-11-13 23:04:53.143,-0.017,-1.001,0.074
,-0.022,-1.002,0.071
,-0.022,-1.003,0.071
,-0.018,-1.002,0.073
,-0.022,-1.004,0.07
2025-11-13 23:04:53.160,-0.022,-1.002,0.071
2025-11-13 23:04:53.160,-0.022,-1.003,0.071
2025-11-13 23:04:53.160,-0.018,-1.002,0.073
2025-11-13 23:04:53.160,-0.022,-1.004,0.07
,-0.019,-1.003,0.073
,-0.021,-1.002,0.071
,-0.023,-1.004,0.07
,-0.017,-1.002,0.073
,-0.023,-1.002,0.071
,-0.022,-1.003,0.072
,-0.019,-1.002,0.073
,-0.023,-1.004,0.07
,-0.02,-1.002,0.073
,-0.021,-1.001,0.071
,-0.022,-1.005,0.071
,-0.018,-1.003,0.074
2025-11-13 23:04:53.301,-0.019,-1.003,0.073
2025-11-13 23:04:53.301,-0.021,-1.002,0.071
2025-11-13 23:04:53.301,-0.023,-1.004,0.07
2025-11-13 23:04:53.301,-0.017,-1.002,0.073
2025-11-13 23:04:53.301,-0.023,-1.002,0.071
2025-11-13 23:04:53.301,-0.022,-1.003,0.072
2025-11-13 23:04:53.301,-0.019,-1.002,0.073
2025-11-13 23:04:53.301,-0.023,-1.004,0.07
2025-11-13 23:04:53.301,-0.02,-1.002,0.073
2025-11-13 23:04:53.301,-0.021,-1.001,0.071
2025-11-13 23:04:53.301,-0.022,-1.005,0.071
2025-11-13 23:04:53.301,-0.018,-1.003,0.074
,-0.023,-1.005,0.071
,-0.023,-1.002,0.073
,-0.02,-1.001,0.074
,-0.024,-1.003,0.071
2025-11-13 23:04:53.310,-0.023,-1.005,0.071
2025-11-13 23:04:53.310,-0.023,-1.002,0.073
2025-11-13 23:04:53.310,-0.02,-1.001,0.074
2025-11-13 23:04:53.310,-0.024,-1.003,0.071
,-0.019,-1.004,0.074
,-0.021,-1.002,0.072
,-0.023,-1.001,0.071
,-0.019,-1.0,0.074
,-0.022,-1.003,0.071
,-0.021,-1.006,0.073
,-0.019,-1.001,0.073
,-0.024,-1.001,0.071
,-0.019,-1.001,0.074
,-0.021,-1.004,0.071
,-0.023,-1.006,0.07
,-0.019,-1.002,0.074
2025-11-13 23:04:53.448,-0.019,-1.004,0.074
2025-11-13 23:04:53.448,-0.021,-1.002,0.072
2025-11-13 23:04:53.448,-0.023,-1.001,0.071
2025-11-13 23:04:53.448,-0.019,-1.0,0.074
2025-11-13 23:04:53.448,-0.022,-1.003,0.071
2025-11-13 23:04:53.448,-0.021,-1.006,0.073
2025-11-13 23:04:53.448,-0.019,-1.001,0.073
2025-11-13 23:04:53.448,-0.024,-1.001,0.071
2025-11-13 23:04:53.448,-0.019,-1.001,0.074
2025-11-13 23:04:53.448,-0.021,-1.004,0.071
2025-11-13 23:04:53.448,-0.023,-1.006,0.07
2025-11-13 23:04:53.448,-0.019,-1.002,0.074
,-0.023,-1.002,0.071
,-0.021,-1.003,0.072
,-0.02,-1.003,0.074
,-0.023,-1.006,0.071
,-0.021,-1.0,0.072
,-0.022,-1.002,0.07
,-0.018,-1.002,0.074
,-0.022,-1.002,0.069
,-0.021,-1.0,0.072
,-0.02,-1.0,0.073
,-0.023,-1.004,0.07
,-0.019,-1.003,0.073
2025-11-13 23:04:53.591,-0.023,-1.002,0.071
2025-11-13 23:04:53.591,-0.021,-1.003,0.072
2025-11-13 23:04:53.591,-0.02,-1.003,0.074
2025-11-13 23:04:53.591,-0.023,-1.006,0.071
2025-11-13 23:04:53.591,-0.021,-1.0,0.072
2025-11-13 23:04:53.591,-0.022,-1.002,0.07
2025-11-13 23:04:53.591,-0.018,-1.002,0.074
2025-11-13 23:04:53.591,-0.022,-1.002,0.069
2025-11-13 23:04:53.591,-0.021,-1.0,0.072
2025-11-13 23:04:53.591,-0.02,-1.0,0.073
2025-11-13 23:04:53.591,-0.023,-1.004,0.07
2025-11-13 23:04:53.591,-0.019,-1.003,0.073
,-0.022,-1.002,0.072
,-0.023,-1.003,0.071
,-0.018,-1.001,0.075
,-0.023,-1.004,0.072
2025-11-13 23:04:53.610,-0.022,-1.002,0.072
2025-11-13 23:04:53.611,-0.023,-1.003,0.071
2025-11-13 23:04:53.611,-0.018,-1.001,0.075
2025-11-13 23:04:53.611,-0.023,-1.004,0.072
,-0.021,-1.003,0.073
,-0.019,-1.0,0.073
,-0.024,-1.003,0.07
,-0.02,-1.002,0.074
,-0.021,-1.002,0.072
,-0.023,-1.002,0.072
,-0.019,-1.0,0.074
,-0.023,-1.001,0.071
,-0.021,-1.001,0.072
,-0.019,-1.002,0.073
,-0.023,-1.004,0.069
,-0.019,-1.001,0.074
2025-11-13 23:04:53.746,-0.021,-1.003,0.073
2025-11-13 23:04:53.746,-0.019,-1.0,0.073
2025-11-13 23:04:53.746,-0.024,-1.003,0.07
2025-11-13 23:04:53.746,-0.02,-1.002,0.074
2025-11-13 23:04:53.746,-0.021,-1.002,0.072
2025-11-13 23:04:53.746,-0.023,-1.002,0.072
2025-11-13 23:04:53.746,-0.019,-1.0,0.074
2025-11-13 23:04:53.746,-0.023,-1.001,0.071
2025-11-13 23:04:53.746,-0.021,-1.001,0.072
2025-11-13 23:04:53.746,-0.019,-1.002,0.073
2025-11-13 23:04:53.746,-0.023,-1.004,0.069
2025-11-13 23:04:53.746,-0.019,-1.001,0.074
,-0.02,-1.003,0.07
,-0.023,-1.005,0.071
,-0.018,-1.002,0.074
,-0.021,-1.004,0.071
2025-11-13 23:04:53.763,-0.02,-1.003,0.07
2025-11-13 23:04:53.763,-0.023,-1.005,0.071
2025-11-13 23:04:53.763,-0.018,-1.002,0.074
2025-11-13 23:04:53.763,-0.021,-1.004,0.071
,-0.02,-1.002,0.072
,-0.018,-1.002,0.074
,-0.023,-1.005,0.07
,-0.019,-1.003,0.074
2025-11-13 23:04:53.792,-0.02,-1.002,0.072
2025-11-13 23:04:53.792,-0.018,-1.002,0.074
2025-11-13 23:04:53.792,-0.023,-1.005,0.07
2025-11-13 23:04:53.792,-0.019,-1.003,0.074
,-0.021,-1.002,0.07
,-0.023,-1.004,0.07
,-0.018,-1.001,0.074
,-0.023,-1.003,0.071
,-0.021,-1.001,0.072
,-0.02,-1.0,0.073
,-0.024,-1.002,0.07
,-0.019,-1.0,0.075
2025-11-13 23:04:53.899,-0.021,-1.002,0.07
2025-11-13 23:04:53.899,-0.023,-1.004,0.07
2025-11-13 23:04:53.899,-0.018,-1.001,0.074
2025-11-13 23:04:53.899,-0.023,-1.003,0.071
2025-11-13 23:04:53.899,-0.021,-1.001,0.072
2025-11-13 23:04:53.899,-0.02,-1.0,0.073
2025-11-13 23:04:53.899,-0.024,-1.002,0.07
2025-11-13 23:04:53.899,-0.019,-1.0,0.075
,-0.021,-1.0,0.072
,-0.023,-1.003,0.07
,-0.017,-1.0,0.074
,-0.022,-1.004,0.07
2025-11-13 23:04:53.910,-0.021,-1.0,0.072
2025-11-13 23:04:53.910,-0.023,-1.003,0.07
2025-11-13 23:04:53.910,-0.017,-1.0,0.074
2025-11-13 23:04:53.910,-0.022,-1.004,0.07
,-0.02,-1.004,0.072
,-0.018,-1.002,0.074
,-0.024,-1.003,0.07
,-0.019,-1.002,0.074
,-0.021,-1.003,0.072
,-0.023,-1.003,0.071
,-0.018,-1.001,0.074
,-0.022,-1.005,0.07
2025-11-13 23:04:54.049,-0.02,-1.004,0.072
2025-11-13 23:04:54.049,-0.018,-1.002,0.074
2025-11-13 23:04:54.049,-0.024,-1.003,0.07
2025-11-13 23:04:54.049,-0.019,-1.002,0.074
2025-11-13 23:04:54.049,-0.021,-1.003,0.072
2025-11-13 23:04:54.049,-0.023,-1.003,0.071
2025-11-13 23:04:54.049,-0.018,-1.001,0.074
2025-11-13 23:04:54.049,-0.022,-1.005,0.07
,-0.02,-1.003,0.072
,-0.018,-1.001,0.074
,-0.024,-1.005,0.07
,-0.02,-1.003,0.074
2025-11-13 23:04:54.060,-0.02,-1.003,0.072
2025-11-13 23:04:54.060,-0.018,-1.001,0.074
2025-11-13 23:04:54.060,-0.024,-1.005,0.07
2025-11-13 23:04:54.060,-0.02,-1.003,0.074
,-0.02,-1.002,0.071
,-0.023,-1.005,0.07
,-0.017,-1.001,0.074
,-0.023,-1.003,0.071
,-0.021,-1.004,0.072
,-0.018,-1.002,0.073
,-0.024,-1.004,0.07
,-0.019,-1.002,0.074
,-0.02,-1.003,0.073
,-0.023,-1.005,0.07
,-0.019,-1.001,0.074
,-0.023,-1.004,0.071
2025-11-13 23:04:54.194,-0.02,-1.002,0.071
2025-11-13 23:04:54.195,-0.023,-1.005,0.07
2025-11-13 23:04:54.195,-0.017,-1.001,0.074
2025-11-13 23:04:54.195,-0.023,-1.003,0.071
2025-11-13 23:04:54.195,-0.021,-1.004,0.072
2025-11-13 23:04:54.195,-0.018,-1.002,0.073
2025-11-13 23:04:54.195,-0.024,-1.004,0.07
2025-11-13 23:04:54.195,-0.019,-1.002,0.074
2025-11-13 23:04:54.195,-0.02,-1.003,0.073
2025-11-13 23:04:54.195,-0.023,-1.005,0.07
2025-11-13 23:04:54.195,-0.019,-1.001,0.074
2025-11-13 23:04:54.195,-0.023,-1.004,0.071
,-0.022,-1.004,0.071
,-0.018,-1.002,0.073
,-0.023,-1.003,0.069
,-0.019,-1.003,0.073
2025-11-13 23:04:54.210,-0.022,-1.004,0.071
2025-11-13 23:04:54.210,-0.018,-1.002,0.073
2025-11-13 23:04:54.210,-0.023,-1.003,0.069
2025-11-13 23:04:54.210,-0.019,-1.003,0.073
,-0.02,-1.003,0.072
,-0.023,-1.003,0.069
,-0.018,-1.002,0.074
,-0.022,-1.003,0.071
,-0.021,-1.003,0.071
,-0.017,-1.002,0.075
,-0.024,-1.004,0.07
,-0.021,-1.003,0.074
2025-11-13 23:04:54.323,-0.02,-1.003,0.072
2025-11-13 23:04:54.323,-0.023,-1.003,0.069
2025-11-13 23:04:54.323,-0.018,-1.002,0.074
2025-11-13 23:04:54.323,-0.022,-1.003,0.071
2025-11-13 23:04:54.323,-0.021,-1.003,0.071
2025-11-13 23:04:54.323,-0.017,-1.002,0.075
2025-11-13 23:04:54.323,-0.024,-1.004,0.07
2025-11-13 23:04:54.323,-0.021,-1.003,0.074
,-0.02,-1.002,0.072
,-0.024,-1.004,0.07
,-0.019,-1.002,0.074
,-0.022,-1.004,0.072
2025-11-13 23:04:54.330,-0.02,-1.002,0.072
2025-11-13 23:04:54.330,-0.024,-1.004,0.07
2025-11-13 23:04:54.330,-0.019,-1.002,0.074
2025-11-13 23:04:54.330,-0.022,-1.004,0.072
,-0.022,-1.004,0.071
,-0.018,-1.002,0.075
,-0.024,-1.004,0.07
,-0.02,-1.002,0.073
,-0.021,-1.002,0.073
,-0.024,-1.004,0.07
,-0.018,-1.001,0.074
,-0.021,-1.003,0.072
,-0.022,-1.004,0.072
,-0.017,-1.002,0.075
,-0.023,-1.002,0.069
,-0.021,-1.002,0.073
2025-11-13 23:04:54.461,-0.022,-1.004,0.071
2025-11-13 23:04:54.461,-0.018,-1.002,0.075
2025-11-13 23:04:54.461,-0.024,-1.004,0.07
2025-11-13 23:04:54.461,-0.02,-1.002,0.073
2025-11-13 23:04:54.461,-0.021,-1.002,0.073
2025-11-13 23:04:54.461,-0.024,-1.004,0.07
2025-11-13 23:04:54.461,-0.018,-1.001,0.074
2025-11-13 23:04:54.461,-0.021,-1.003,0.072
2025-11-13 23:04:54.461,-0.022,-1.004,0.072
2025-11-13 23:04:54.461,-0.017,-1.002,0.075
2025-11-13 23:04:54.461,-0.023,-1.002,0.069
2025-11-13 23:04:54.461,-0.021,-1.002,0.073
,-0.02,-1.001,0.073
,-0.024,-1.005,0.07
,-0.019,-1.002,0.074
,-0.022,-1.003,0.072
2025-11-13 23:04:54.482,-0.02,-1.001,0.073
2025-11-13 23:04:54.482,-0.024,-1.005,0.07
2025-11-13 23:04:54.482,-0.019,-1.002,0.074
2025-11-13 23:04:54.482,-0.022,-1.003,0.072
,-0.023,-1.004,0.071
,-0.017,-1.002,0.075
,-0.023,-1.003,0.07
,-0.02,-1.002,0.072
,-0.019,-1.001,0.074
,-0.025,-1.003,0.07
,-0.019,-1.002,0.074
,-0.021,-1.002,0.072
,-0.023,-1.003,0.071
,-0.018,-1.002,0.075
,-0.023,-1.005,0.07
,-0.021,-1.003,0.072
2025-11-13 23:04:54.616,-0.023,-1.004,0.071
2025-11-13 23:04:54.616,-0.017,-1.002,0.075
2025-11-13 23:04:54.616,-0.023,-1.003,0.07
2025-11-13 23:04:54.616,-0.02,-1.002,0.072
2025-11-13 23:04:54.616,-0.019,-1.001,0.074
2025-11-13 23:04:54.616,-0.025,-1.003,0.07
2025-11-13 23:04:54.616,-0.019,-1.002,0.074
2025-11-13 23:04:54.616,-0.021,-1.002,0.072
2025-11-13 23:04:54.616,-0.023,-1.003,0.071
2025-11-13 23:04:54.616,-0.018,-1.002,0.075
2025-11-13 23:04:54.616,-0.023,-1.005,0.07
2025-11-13 23:04:54.616,-0.021,-1.003,0.072
,-0.019,-1.002,0.074
,-0.024,-1.004,0.07
,-0.019,-1.002,0.073
,-0.021,-1.002,0.071
2025-11-13 23:04:54.662,-0.019,-1.002,0.074
2025-11-13 23:04:54.662,-0.024,-1.004,0.07
2025-11-13 23:04:54.662,-0.019,-1.002,0.073
2025-11-13 23:04:54.662,-0.021,-1.002,0.071
,-0.023,-1.003,0.07
,-0.018,-1.002,0.075
,-0.022,-1.004,0.07
,-0.022,-1.003,0.072
,-0.02,-1.002,0.074
,-0.024,-1.005,0.07
,-0.018,-1.001,0.073
,-0.02,-1.002,0.072
2025-11-13 23:04:54.770,-0.023,-1.003,0.07
2025-11-13 23:04:54.770,-0.018,-1.002,0.075
2025-11-13 23:04:54.770,-0.022,-1.004,0.07
2025-11-13 23:04:54.770,-0.022,-1.003,0.072
2025-11-13 23:04:54.770,-0.02,-1.002,0.074
2025-11-13 23:04:54.770,-0.024,-1.005,0.07
2025-11-13 23:04:54.770,-0.018,-1.001,0.073
2025-11-13 23:04:54.770,-0.02,-1.002,0.072
,-0.023,-1.003,0.07
,-0.018,-1.0,0.074
,-0.023,-1.001,0.072
,-0.023,-1.001,0.071
2025-11-13 23:04:54.780,-0.023,-1.003,0.07
2025-11-13 23:04:54.780,-0.018,-1.0,0.074
2025-11-13 23:04:54.780,-0.023,-1.001,0.072
2025-11-13 23:04:54.780,-0.023,-1.001,0.071
,-0.017,-1.0,0.073
,-0.025,-1.002,0.07
,-0.02,-1.001,0.073
,-0.024,-1.005,0.07
,-0.018,-1.002,0.074
,-0.021,-1.003,0.071
,-0.022,-1.003,0.072
,-0.018,-1.001,0.075
,-0.024,-1.004,0.07
,-0.019,-1.003,0.073
,-0.019,-1.002,0.072
,-0.023,-1.004,0.07
2025-11-13 23:04:54.910,-0.017,-1.0,0.073
2025-11-13 23:04:54.911,-0.025,-1.002,0.07
2025-11-13 23:04:54.911,-0.02,-1.001,0.073
2025-11-13 23:04:54.911,-0.024,-1.005,0.07
2025-11-13 23:04:54.911,-0.018,-1.002,0.074
2025-11-13 23:04:54.911,-0.021,-1.003,0.071
2025-11-13 23:04:54.911,-0.022,-1.003,0.072
2025-11-13 23:04:54.911,-0.018,-1.001,0.075
2025-11-13 23:04:54.911,-0.024,-1.004,0.07
2025-11-13 23:04:54.911,-0.019,-1.003,0.073
2025-11-13 23:04:54.911,-0.019,-1.002,0.072
2025-11-13 23:04:54.911,-0.023,-1.004,0.07
,-0.017,-1.001,0.074
,-0.022,-1.003,0.072
,-0.023,-1.003,0.071
,-0.018,-1.0,0.074
2025-11-13 23:04:54.941,-0.017,-1.001,0.074
2025-11-13 23:04:54.942,-0.022,-1.003,0.072
2025-11-13 23:04:54.942,-0.023,-1.003,0.071
2025-11-13 23:04:54.942,-0.018,-1.0,0.074
,-0.023,-1.003,0.069
,-0.021,-1.003,0.072
,-0.019,-1.002,0.074
,-0.025,-1.004,0.069
,-0.019,-1.001,0.074
,-0.02,-1.002,0.072
,-0.023,-1.003,0.071
,-0.018,-1.002,0.074
,-0.023,-1.004,0.07
,-0.021,-1.002,0.073
,-0.019,-1.001,0.075
,-0.023,-1.002,0.07
2025-11-13 23:04:55.067,-0.023,-1.003,0.069
2025-11-13 23:04:55.067,-0.021,-1.003,0.072
2025-11-13 23:04:55.067,-0.019,-1.002,0.074
2025-11-13 23:04:55.067,-0.025,-1.004,0.069
2025-11-13 23:04:55.067,-0.019,-1.001,0.074
2025-11-13 23:04:55.067,-0.02,-1.002,0.072
2025-11-13 23:04:55.067,-0.023,-1.003,0.071
2025-11-13 23:04:55.067,-0.018,-1.002,0.074
2025-11-13 23:04:55.067,-0.023,-1.004,0.07
2025-11-13 23:04:55.067,-0.021,-1.002,0.073
2025-11-13 23:04:55.067,-0.019,-1.001,0.075
2025-11-13 23:04:55.067,-0.023,-1.002,0.07
,-0.019,-1.001,0.073
,-0.02,-1.004,0.073
,-0.024,-1.005,0.071
,-0.018,-1.001,0.075
2025-11-13 23:04:55.085,-0.019,-1.001,0.073
2025-11-13 23:04:55.085,-0.02,-1.004,0.073
2025-11-13 23:04:55.085,-0.024,-1.005,0.071
2025-11-13 23:04:55.085,-0.018,-1.001,0.075
,-0.023,-1.003,0.07
,-0.022,-1.003,0.071
,-0.018,-1.002,0.074
,-0.024,-1.003,0.07
,-0.019,-1.002,0.073
,-0.019,-1.003,0.073
,-0.024,-1.005,0.07
,-0.019,-1.002,0.074
,-0.022,-1.004,0.072
,-0.023,-1.003,0.071
,-0.018,-1.001,0.074
,-0.023,-1.005,0.071
2025-11-13 23:04:55.223,-0.023,-1.003,0.07
2025-11-13 23:04:55.223,-0.022,-1.003,0.071
2025-11-13 23:04:55.223,-0.018,-1.002,0.074
2025-11-13 23:04:55.223,-0.024,-1.003,0.07
2025-11-13 23:04:55.223,-0.019,-1.002,0.073
2025-11-13 23:04:55.223,-0.019,-1.003,0.073
2025-11-13 23:04:55.223,-0.024,-1.005,0.07
2025-11-13 23:04:55.223,-0.019,-1.002,0.074
2025-11-13 23:04:55.223,-0.022,-1.004,0.072
2025-11-13 23:04:55.223,-0.023,-1.003,0.071
2025-11-13 23:04:55.223,-0.018,-1.001,0.074
2025-11-13 23:04:55.223,-0.023,-1.005,0.071
,-0.02,-1.003,0.072
,-0.019,-1.002,0.073
,-0.024,-1.005,0.071
,-0.02,-1.001,0.074
,-0.021,-1.004,0.071
,-0.022,-1.004,0.07
,-0.018,-1.002,0.075
,-0.023,-1.002,0.071
,-0.021,-1.002,0.073
,-0.019,-1.003,0.073
,-0.024,-1.003,0.069
,-0.02,-1.001,0.074
2025-11-13 23:04:55.361,-0.02,-1.003,0.072
2025-11-13 23:04:55.361,-0.019,-1.002,0.073
2025-11-13 23:04:55.362,-0.024,-1.005,0.071
2025-11-13 23:04:55.362,-0.02,-1.001,0.074
2025-11-13 23:04:55.362,-0.021,-1.004,0.071
2025-11-13 23:04:55.362,-0.022,-1.004,0.07
2025-11-13 23:04:55.362,-0.018,-1.002,0.075
2025-11-13 23:04:55.362,-0.023,-1.002,0.071
2025-11-13 23:04:55.362,-0.021,-1.002,0.073
2025-11-13 23:04:55.362,-0.019,-1.003,0.073
2025-11-13 23:04:55.362,-0.024,-1.003,0.069
2025-11-13 23:04:55.362,-0.02,-1.001,0.074
,-0.021,-1.002,0.072
,-0.024,-1.004,0.07
,-0.018,-1.001,0.075
,-0.022,-1.004,0.072
2025-11-13 23:04:55.380,-0.021,-1.002,0.072
2025-11-13 23:04:55.380,-0.024,-1.004,0.07
2025-11-13 23:04:55.380,-0.018,-1.001,0.075
2025-11-13 23:04:55.380,-0.022,-1.004,0.072
,-0.021,-1.003,0.073
,-0.018,-1.002,0.075
,-0.023,-1.004,0.069
,-0.019,-1.003,0.073
,-0.02,-1.002,0.072
,-0.023,-1.005,0.069
,-0.018,-1.001,0.075
,-0.021,-1.003,0.072
,-0.022,-1.004,0.071
,-0.018,-1.002,0.075
,-0.024,-1.003,0.071
,-0.021,-1.001,0.073
2025-11-13 23:04:55.511,-0.021,-1.003,0.073
2025-11-13 23:04:55.511,-0.018,-1.002,0.075
2025-11-13 23:04:55.511,-0.023,-1.004,0.069
2025-11-13 23:04:55.511,-0.019,-1.003,0.073
2025-11-13 23:04:55.511,-0.02,-1.002,0.072
2025-11-13 23:04:55.511,-0.023,-1.005,0.069
2025-11-13 23:04:55.511,-0.018,-1.001,0.075
2025-11-13 23:04:55.511,-0.021,-1.003,0.072
2025-11-13 23:04:55.511,-0.022,-1.004,0.071
2025-11-13 23:04:55.511,-0.018,-1.002,0.075
2025-11-13 23:04:55.511,-0.024,-1.003,0.071
2025-11-13 23:04:55.511,-0.021,-1.001,0.073
,-0.018,-1.001,0.073
,-0.024,-1.005,0.069
,-0.018,-1.002,0.073
,-0.021,-1.003,0.072
2025-11-13 23:04:55.535,-0.018,-1.001,0.073
2025-11-13 23:04:55.535,-0.024,-1.005,0.069
2025-11-13 23:04:55.535,-0.018,-1.002,0.073
2025-11-13 23:04:55.535,-0.021,-1.003,0.072
,-0.023,-1.003,0.069
,-0.019,-1.002,0.074
,-0.023,-1.003,0.07
,-0.022,-1.002,0.071
,-0.018,-0.999,0.073
,-0.025,-1.001,0.069
,-0.02,-1.001,0.073
,-0.02,-1.003,0.074
,-0.024,-1.004,0.07
,-0.018,-1.002,0.074
,-0.022,-1.002,0.072
,-0.023,-1.003,0.072
2025-11-13 23:04:55.661,-0.023,-1.003,0.069
2025-11-13 23:04:55.661,-0.019,-1.002,0.074
2025-11-13 23:04:55.661,-0.023,-1.003,0.07
2025-11-13 23:04:55.661,-0.022,-1.002,0.071
2025-11-13 23:04:55.661,-0.018,-0.999,0.073
2025-11-13 23:04:55.661,-0.025,-1.001,0.069
2025-11-13 23:04:55.661,-0.02,-1.001,0.073
2025-11-13 23:04:55.661,-0.02,-1.003,0.074
2025-11-13 23:04:55.661,-0.024,-1.004,0.07
2025-11-13 23:04:55.661,-0.018,-1.002,0.074
2025-11-13 23:04:55.661,-0.022,-1.002,0.072
2025-11-13 23:04:55.661,-0.023,-1.003,0.072
,-0.018,-1.001,0.075
,-0.024,-1.002,0.07
,-0.02,-1.001,0.074
,-0.018,-1.002,0.074
,-0.024,-1.003,0.07
,-0.019,-1.002,0.074
,-0.021,-1.003,0.071
,-0.023,-1.003,0.071
,-0.017,-1.0,0.075
,-0.023,-1.001,0.069
,-0.021,-1.001,0.071
,-0.018,-1.001,0.073
2025-11-13 23:04:55.816,-0.018,-1.001,0.075
2025-11-13 23:04:55.816,-0.024,-1.002,0.07
2025-11-13 23:04:55.816,-0.02,-1.001,0.074
2025-11-13 23:04:55.816,-0.018,-1.002,0.074
2025-11-13 23:04:55.816,-0.024,-1.003,0.07
2025-11-13 23:04:55.816,-0.019,-1.002,0.074
2025-11-13 23:04:55.816,-0.021,-1.003,0.071
2025-11-13 23:04:55.816,-0.023,-1.003,0.071
2025-11-13 23:04:55.816,-0.017,-1.0,0.075
2025-11-13 23:04:55.816,-0.023,-1.001,0.069
2025-11-13 23:04:55.816,-0.021,-1.001,0.071
2025-11-13 23:04:55.816,-0.018,-1.001,0.073
,-0.024,-1.002,0.069
,-0.019,-1.0,0.073
,-0.02,-1.0,0.072
,-0.024,-1.004,0.069
2025-11-13 23:04:55.832,-0.024,-1.002,0.069
2025-11-13 23:04:55.832,-0.019,-1.0,0.073
2025-11-13 23:04:55.832,-0.02,-1.0,0.072
2025-11-13 23:04:55.832,-0.024,-1.004,0.069
,-0.018,-1.001,0.074
,-0.022,-1.002,0.07
,-0.021,-1.003,0.071
,-0.018,-1.0,0.074
2025-11-13 23:04:55.862,-0.018,-1.001,0.074
2025-11-13 23:04:55.862,-0.022,-1.002,0.07
2025-11-13 23:04:55.863,-0.021,-1.003,0.071
2025-11-13 23:04:55.863,-0.018,-1.0,0.074
,-0.023,-1.003,0.069
,-0.02,-1.002,0.073
,-0.02,-1.001,0.073
,-0.024,-1.003,0.07
,-0.018,-1.0,0.076
,-0.021,-1.001,0.072
,-0.023,-1.003,0.072
,-0.019,-1.002,0.074
2025-11-13 23:04:55.966,-0.023,-1.003,0.069
2025-11-13 23:04:55.966,-0.02,-1.002,0.073
2025-11-13 23:04:55.966,-0.02,-1.001,0.073
2025-11-13 23:04:55.966,-0.024,-1.003,0.07
2025-11-13 23:04:55.966,-0.018,-1.0,0.076
2025-11-13 23:04:55.966,-0.021,-1.001,0.072
2025-11-13 23:04:55.966,-0.023,-1.003,0.072
2025-11-13 23:04:55.966,-0.019,-1.002,0.074
,-0.024,-1.005,0.07
,-0.02,-1.003,0.072
,-0.019,-1.001,0.074
,-0.025,-1.006,0.07
2025-11-13 23:04:55.985,-0.024,-1.005,0.07
2025-11-13 23:04:55.985,-0.02,-1.003,0.072
2025-11-13 23:04:55.985,-0.019,-1.001,0.074
2025-11-13 23:04:55.985,-0.025,-1.006,0.07
,-0.02,-1.003,0.074
,-0.021,-1.001,0.072
,-0.024,-1.003,0.07
,-0.018,-1.002,0.074
,-0.022,-1.004,0.072
,-0.021,-1.003,0.073
,-0.018,-1.001,0.074
,-0.023,-1.004,0.07
,-0.02,-1.002,0.073
,-0.02,-1.002,0.073
,-0.024,-1.003,0.071
,-0.018,-1.002,0.075
2025-11-13 23:04:56.110,-0.02,-1.003,0.074
2025-11-13 23:04:56.110,-0.021,-1.001,0.072
2025-11-13 23:04:56.110,-0.024,-1.003,0.07
2025-11-13 23:04:56.110,-0.018,-1.002,0.074
2025-11-13 23:04:56.110,-0.022,-1.004,0.072
2025-11-13 23:04:56.110,-0.021,-1.003,0.073
2025-11-13 23:04:56.110,-0.018,-1.001,0.074
2025-11-13 23:04:56.110,-0.023,-1.004,0.07
2025-11-13 23:04:56.110,-0.02,-1.002,0.073
2025-11-13 23:04:56.110,-0.02,-1.002,0.073
2025-11-13 23:04:56.110,-0.024,-1.003,0.071
2025-11-13 23:04:56.110,-0.018,-1.002,0.075
,-0.023,-1.001,0.071
,-0.018,-1.0,0.074
,-0.024,-1.003,0.069
,-0.02,-1.002,0.073
2025-11-13 23:04:56.130,-0.023,-1.001,0.071
2025-11-13 23:04:56.130,-0.018,-1.0,0.074
2025-11-13 23:04:56.130,-0.024,-1.003,0.069
2025-11-13 23:04:56.130,-0.02,-1.002,0.073
,-0.019,-1.001,0.073
,-0.024,-1.003,0.069
,-0.019,-1.003,0.074
,-0.021,-1.003,0.072
,-0.023,-1.003,0.07
,-0.018,-1.001,0.074
,-0.023,-1.004,0.07
,-0.021,-1.002,0.071
,-0.018,-1.003,0.074
,-0.023,-1.003,0.069
,-0.02,-1.002,0.074
,-0.02,-1.003,0.073
2025-11-13 23:04:56.264,-0.019,-1.001,0.073
2025-11-13 23:04:56.264,-0.024,-1.003,0.069
2025-11-13 23:04:56.264,-0.019,-1.003,0.074
2025-11-13 23:04:56.264,-0.021,-1.003,0.072
2025-11-13 23:04:56.264,-0.023,-1.003,0.07
2025-11-13 23:04:56.264,-0.018,-1.001,0.074
2025-11-13 23:04:56.264,-0.023,-1.004,0.07
2025-11-13 23:04:56.264,-0.021,-1.002,0.071
2025-11-13 23:04:56.264,-0.018,-1.003,0.074
2025-11-13 23:04:56.264,-0.023,-1.003,0.069
2025-11-13 23:04:56.264,-0.02,-1.002,0.074
2025-11-13 23:04:56.264,-0.02,-1.003,0.073
,-0.023,-1.003,0.071
,-0.018,-1.002,0.076
,-0.022,-1.003,0.071
,-0.022,-1.004,0.071
,-0.018,-1.001,0.075
,-0.023,-1.004,0.07
,-0.021,-1.003,0.073
,-0.02,-1.003,0.074
,-0.024,-1.002,0.069
,-0.018,-1.001,0.073
,-0.021,-1.003,0.072
,-0.024,-1.004,0.07
2025-11-13 23:04:56.412,-0.023,-1.003,0.071
2025-11-13 23:04:56.412,-0.018,-1.002,0.076
2025-11-13 23:04:56.412,-0.022,-1.003,0.071
2025-11-13 23:04:56.412,-0.022,-1.004,0.071
2025-11-13 23:04:56.412,-0.018,-1.001,0.075
2025-11-13 23:04:56.412,-0.023,-1.004,0.07
2025-11-13 23:04:56.412,-0.021,-1.003,0.073
2025-11-13 23:04:56.412,-0.02,-1.003,0.074
2025-11-13 23:04:56.412,-0.024,-1.002,0.069
2025-11-13 23:04:56.412,-0.018,-1.001,0.073
2025-11-13 23:04:56.412,-0.021,-1.003,0.072
2025-11-13 23:04:56.412,-0.024,-1.004,0.07
,-0.017,-1.001,0.075
,-0.022,-1.003,0.07
,-0.021,-1.002,0.072
,-0.019,-1.002,0.074
2025-11-13 23:04:56.430,-0.017,-1.001,0.075
2025-11-13 23:04:56.430,-0.022,-1.003,0.07
2025-11-13 23:04:56.430,-0.021,-1.002,0.072
2025-11-13 23:04:56.430,-0.019,-1.002,0.074
,-0.025,-1.005,0.069
,-0.02,-1.002,0.074
,-0.021,-1.003,0.072
,-0.023,-1.005,0.069
,-0.017,-1.003,0.076
,-0.022,-1.003,0.071
,-0.023,-1.002,0.071
,-0.019,-1.0,0.074
,-0.024,-1.002,0.069
,-0.019,-1.0,0.073
,-0.019,-1.0,0.073
,-0.025,-1.001,0.07
2025-11-13 23:04:56.567,-0.025,-1.005,0.069
2025-11-13 23:04:56.567,-0.02,-1.002,0.074
2025-11-13 23:04:56.567,-0.021,-1.003,0.072
2025-11-13 23:04:56.567,-0.023,-1.005,0.069
2025-11-13 23:04:56.567,-0.017,-1.003,0.076
2025-11-13 23:04:56.567,-0.022,-1.003,0.071
2025-11-13 23:04:56.567,-0.023,-1.002,0.071
2025-11-13 23:04:56.567,-0.019,-1.0,0.074
2025-11-13 23:04:56.567,-0.024,-1.002,0.069
2025-11-13 23:04:56.567,-0.019,-1.0,0.073
2025-11-13 23:04:56.567,-0.019,-1.0,0.073
2025-11-13 23:04:56.567,-0.025,-1.001,0.07
,-0.018,-1.0,0.074
,-0.022,-1.002,0.072
,-0.022,-1.003,0.071
,-0.018,-1.0,0.075
2025-11-13 23:04:56.584,-0.018,-1.0,0.074
2025-11-13 23:04:56.584,-0.022,-1.002,0.072
2025-11-13 23:04:56.584,-0.022,-1.003,0.071
2025-11-13 23:04:56.584,-0.018,-1.0,0.075
,-0.023,-1.002,0.07
,-0.021,-1.002,0.073
,-0.019,-1.001,0.073
,-0.023,-1.004,0.07
2025-11-13 23:04:56.612,-0.023,-1.002,0.07
2025-11-13 23:04:56.612,-0.021,-1.002,0.073
2025-11-13 23:04:56.612,-0.019,-1.001,0.073
2025-11-13 23:04:56.612,-0.023,-1.004,0.07
,-0.018,-1.003,0.075
,-0.02,-1.003,0.074
,-0.024,-1.003,0.071
,-0.019,-1.001,0.073
,-0.022,-1.003,0.071
,-0.021,-1.003,0.071
,-0.018,-1.0,0.074
,-0.024,-1.004,0.069
2025-11-13 23:04:56.722,-0.018,-1.003,0.075
2025-11-13 23:04:56.722,-0.02,-1.003,0.074
2025-11-13 23:04:56.722,-0.024,-1.003,0.071
2025-11-13 23:04:56.722,-0.019,-1.001,0.073
2025-11-13 23:04:56.722,-0.022,-1.003,0.071
2025-11-13 23:04:56.722,-0.021,-1.003,0.071
2025-11-13 23:04:56.722,-0.018,-1.0,0.074
2025-11-13 23:04:56.722,-0.024,-1.004,0.069
,-0.02,-1.003,0.073
,-0.02,-1.002,0.073
,-0.023,-1.004,0.07
,-0.019,-1.001,0.075
2025-11-13 23:04:56.730,-0.02,-1.003,0.073
2025-11-13 23:04:56.730,-0.02,-1.002,0.073
2025-11-13 23:04:56.730,-0.023,-1.004,0.07
2025-11-13 23:04:56.730,-0.019,-1.001,0.075
,-0.022,-1.003,0.072
,-0.022,-1.004,0.071
,-0.018,-1.002,0.074
,-0.023,-1.004,0.07
,-0.021,-1.003,0.073
,-0.019,-1.002,0.073
,-0.024,-1.003,0.07
,-0.019,-1.0,0.073
2025-11-13 23:04:56.862,-0.022,-1.003,0.072
2025-11-13 23:04:56.862,-0.022,-1.004,0.071
2025-11-13 23:04:56.862,-0.018,-1.002,0.074
2025-11-13 23:04:56.862,-0.023,-1.004,0.07
2025-11-13 23:04:56.862,-0.021,-1.003,0.073
2025-11-13 23:04:56.862,-0.019,-1.002,0.073
2025-11-13 23:04:56.862,-0.024,-1.003,0.07
2025-11-13 23:04:56.862,-0.019,-1.0,0.073
,-0.021,-1.001,0.071
,-0.023,-1.001,0.07
,-0.017,-1.001,0.075
,-0.023,-1.003,0.071
2025-11-13 23:04:56.880,-0.021,-1.001,0.071
2025-11-13 23:04:56.880,-0.023,-1.001,0.07
2025-11-13 23:04:56.880,-0.017,-1.001,0.075
2025-11-13 23:04:56.880,-0.023,-1.003,0.071
,-0.022,-1.003,0.071
,-0.018,-1.002,0.075
,-0.023,-1.003,0.07
,-0.02,-1.003,0.072
,-0.02,-1.003,0.073
,-0.024,-1.004,0.07
,-0.018,-1.002,0.075
,-0.021,-1.003,0.071
,-0.022,-1.005,0.07
,-0.018,-1.002,0.075
,-0.024,-1.003,0.07
,-0.021,-1.002,0.074
2025-11-13 23:04:57.011,-0.022,-1.003,0.071
2025-11-13 23:04:57.011,-0.018,-1.002,0.075
2025-11-13 23:04:57.011,-0.023,-1.003,0.07
2025-11-13 23:04:57.011,-0.02,-1.003,0.072
2025-11-13 23:04:57.011,-0.02,-1.003,0.073
2025-11-13 23:04:57.011,-0.024,-1.004,0.07
2025-11-13 23:04:57.011,-0.018,-1.002,0.075
2025-11-13 23:04:57.011,-0.021,-1.003,0.071
2025-11-13 23:04:57.011,-0.022,-1.005,0.07
2025-11-13 23:04:57.011,-0.018,-1.002,0.075
2025-11-13 23:04:57.011,-0.024,-1.003,0.07
2025-11-13 23:04:57.011,-0.021,-1.002,0.074
,-0.019,-1.001,0.073
,-0.024,-1.004,0.07
,-0.019,-1.003,0.074
,-0.021,-1.003,0.072
2025-11-13 23:04:57.034,-0.019,-1.001,0.073
2025-11-13 23:04:57.035,-0.024,-1.004,0.07
2025-11-13 23:04:57.035,-0.019,-1.003,0.074
2025-11-13 23:04:57.035,-0.021,-1.003,0.072
,-0.024,-1.004,0.07
,-0.019,-1.002,0.076
,-0.022,-1.004,0.071
,-0.021,-1.002,0.071
2025-11-13 23:04:57.170,-0.024,-1.004,0.07
2025-11-13 23:04:57.170,-0.019,-1.002,0.076
2025-11-13 23:04:57.170,-0.022,-1.004,0.071
2025-11-13 23:04:57.170,-0.021,-1.002,0.071
,-0.019,-1.001,0.074
,-0.023,-1.004,0.07
,-0.02,-1.003,0.074
,-0.019,-1.004,0.073
,-0.023,-1.004,0.07
,-0.019,-1.002,0.075
,-0.022,-1.003,0.073
,-0.022,-1.003,0.071
2025-11-13 23:04:57.172,-0.019,-1.001,0.074
2025-11-13 23:04:57.172,-0.023,-1.004,0.07
2025-11-13 23:04:57.172,-0.02,-1.003,0.074
2025-11-13 23:04:57.172,-0.019,-1.004,0.073
2025-11-13 23:04:57.172,-0.023,-1.004,0.07
2025-11-13 23:04:57.172,-0.019,-1.002,0.075
2025-11-13 23:04:57.172,-0.022,-1.003,0.073
2025-11-13 23:04:57.172,-0.022,-1.003,0.071
,-0.018,-1.002,0.073
,-0.022,-1.003,0.07
,-0.02,-1.003,0.072
,-0.018,-1.002,0.075
2025-11-13 23:04:57.180,-0.018,-1.002,0.073
2025-11-13 23:04:57.180,-0.022,-1.003,0.07
2025-11-13 23:04:57.180,-0.02,-1.003,0.072
2025-11-13 23:04:57.180,-0.018,-1.002,0.075
,-0.023,-1.004,0.071
,-0.02,-1.001,0.073
,-0.019,-1.003,0.073
,-0.023,-1.004,0.07
,-0.017,-1.002,0.074
,-0.022,-1.003,0.072
,-0.022,-1.003,0.071
,-0.018,-1.001,0.075
,-0.023,-1.003,0.07
,-0.021,-1.003,0.073
,-0.019,-1.002,0.074
,-0.023,-1.003,0.071
2025-11-13 23:04:57.320,-0.023,-1.004,0.071
2025-11-13 23:04:57.320,-0.02,-1.001,0.073
2025-11-13 23:04:57.320,-0.019,-1.003,0.073
2025-11-13 23:04:57.320,-0.023,-1.004,0.07
2025-11-13 23:04:57.320,-0.017,-1.002,0.074
2025-11-13 23:04:57.320,-0.022,-1.003,0.072
2025-11-13 23:04:57.320,-0.022,-1.003,0.071
2025-11-13 23:04:57.320,-0.018,-1.001,0.075
2025-11-13 23:04:57.320,-0.023,-1.003,0.07
2025-11-13 23:04:57.321,-0.021,-1.003,0.073
2025-11-13 23:04:57.321,-0.019,-1.002,0.074
2025-11-13 23:04:57.321,-0.023,-1.003,0.071
,-0.019,-1.001,0.073
,-0.021,-1.002,0.072
,-0.024,-1.004,0.07
,-0.017,-1.002,0.075
2025-11-13 23:04:57.367,-0.019,-1.001,0.073
2025-11-13 23:04:57.367,-0.021,-1.002,0.072
2025-11-13 23:04:57.367,-0.024,-1.004,0.07
2025-11-13 23:04:57.367,-0.017,-1.002,0.075
,-0.023,-1.003,0.072
,-0.022,-1.003,0.072
,-0.019,-1.002,0.074
,-0.023,-1.004,0.071
,-0.021,-1.002,0.073
,-0.02,-1.002,0.073
,-0.019,-1.003,0.075
,-0.021,-1.003,0.072
2025-11-13 23:04:57.477,-0.023,-1.003,0.072
2025-11-13 23:04:57.477,-0.022,-1.003,0.072
2025-11-13 23:04:57.477,-0.019,-1.002,0.074
2025-11-13 23:04:57.477,-0.023,-1.004,0.071
2025-11-13 23:04:57.477,-0.021,-1.002,0.073
2025-11-13 23:04:57.477,-0.02,-1.002,0.073
2025-11-13 23:04:57.477,-0.019,-1.003,0.075
2025-11-13 23:04:57.477,-0.021,-1.003,0.072
,-0.022,-1.004,0.07
,-0.019,-1.001,0.074
,-0.023,-1.002,0.071
,-0.021,-1.003,0.072
2025-11-13 23:04:57.480,-0.022,-1.004,0.07
2025-11-13 23:04:57.480,-0.019,-1.001,0.074
2025-11-13 23:04:57.480,-0.023,-1.002,0.071
2025-11-13 23:04:57.480,-0.021,-1.003,0.072
,-0.018,-1.002,0.073
,-0.023,-1.004,0.07
,-0.02,-1.002,0.074
,-0.019,-1.002,0.073
2025-11-13 23:04:57.513,-0.018,-1.002,0.073
2025-11-13 23:04:57.513,-0.023,-1.004,0.07
2025-11-13 23:04:57.513,-0.02,-1.002,0.074
2025-11-13 23:04:57.513,-0.019,-1.002,0.073
,-0.023,-1.004,0.07
,-0.018,-1.001,0.074
,-0.021,-1.004,0.071
,-0.022,-1.003,0.071
,-0.018,-1.001,0.075
,-0.023,-1.004,0.071
,-0.021,-1.002,0.073
,-0.019,-1.002,0.073
2025-11-13 23:04:57.618,-0.023,-1.004,0.07
2025-11-13 23:04:57.618,-0.018,-1.001,0.074
2025-11-13 23:04:57.618,-0.021,-1.004,0.071
2025-11-13 23:04:57.618,-0.022,-1.003,0.071
2025-11-13 23:04:57.618,-0.018,-1.001,0.075
2025-11-13 23:04:57.618,-0.023,-1.004,0.071
2025-11-13 23:04:57.618,-0.021,-1.002,0.073
2025-11-13 23:04:57.618,-0.019,-1.002,0.073
,-0.022,-1.004,0.069
,-0.02,-1.003,0.075
,-0.02,-1.002,0.072
,-0.023,-1.003,0.071
2025-11-13 23:04:57.630,-0.022,-1.004,0.069
2025-11-13 23:04:57.630,-0.02,-1.003,0.075
2025-11-13 23:04:57.630,-0.02,-1.002,0.072
2025-11-13 23:04:57.630,-0.023,-1.003,0.071
,-0.018,-1.0,0.074
,-0.022,-1.002,0.071
,-0.021,-1.004,0.071
,-0.018,-1.002,0.075
,-0.022,-1.003,0.07
,-0.021,-1.003,0.073
,-0.019,-1.002,0.074
,-0.024,-1.004,0.07
,-0.019,-1.001,0.074
,-0.021,-1.002,0.072
,-0.023,-1.003,0.07
,-0.018,-1.001,0.075
2025-11-13 23:04:57.778,-0.018,-1.0,0.074
2025-11-13 23:04:57.778,-0.022,-1.002,0.071
2025-11-13 23:04:57.778,-0.021,-1.004,0.071
2025-11-13 23:04:57.778,-0.018,-1.002,0.075
2025-11-13 23:04:57.778,-0.022,-1.003,0.07
2025-11-13 23:04:57.778,-0.021,-1.003,0.073
2025-11-13 23:04:57.778,-0.019,-1.002,0.074
2025-11-13 23:04:57.778,-0.024,-1.004,0.07
2025-11-13 23:04:57.778,-0.019,-1.001,0.074
2025-11-13 23:04:57.778,-0.021,-1.002,0.072
2025-11-13 23:04:57.778,-0.023,-1.003,0.07
2025-11-13 23:04:57.778,-0.018,-1.001,0.075
,-0.022,-1.003,0.071
,-0.021,-1.004,0.071
,-0.019,-1.002,0.074
,-0.024,-1.005,0.069
2025-11-13 23:04:57.781,-0.022,-1.003,0.071
2025-11-13 23:04:57.781,-0.021,-1.004,0.071
2025-11-13 23:04:57.781,-0.019,-1.002,0.074
2025-11-13 23:04:57.781,-0.024,-1.005,0.069
,-0.02,-1.002,0.073
,-0.02,-1.003,0.073
,-0.024,-1.002,0.07
,-0.019,-1.001,0.074
,-0.021,-1.003,0.072
,-0.021,-1.003,0.07
,-0.018,-1.002,0.074
,-0.023,-1.004,0.07
,-0.021,-1.003,0.073
,-0.019,-1.003,0.074
,-0.024,-1.004,0.07
,-0.019,-1.002,0.074
2025-11-13 23:04:57.956,-0.02,-1.002,0.073
2025-11-13 23:04:57.957,-0.02,-1.003,0.073
2025-11-13 23:04:57.957,-0.024,-1.002,0.07
2025-11-13 23:04:57.957,-0.019,-1.001,0.074
2025-11-13 23:04:57.957,-0.021,-1.003,0.072
2025-11-13 23:04:57.957,-0.021,-1.003,0.07
2025-11-13 23:04:57.957,-0.018,-1.002,0.074
2025-11-13 23:04:57.957,-0.023,-1.004,0.07
2025-11-13 23:04:57.957,-0.021,-1.003,0.073
2025-11-13 23:04:57.957,-0.019,-1.003,0.074
2025-11-13 23:04:57.957,-0.024,-1.004,0.07
2025-11-13 23:04:57.957,-0.019,-1.002,0.074
,-0.021,-1.003,0.073
,-0.022,-1.003,0.07
,-0.018,-1.002,0.074
,-0.022,-1.003,0.071
2025-11-13 23:04:57.960,-0.021,-1.003,0.073
2025-11-13 23:04:57.960,-0.022,-1.003,0.07
2025-11-13 23:04:57.960,-0.018,-1.002,0.074
2025-11-13 23:04:57.960,-0.022,-1.003,0.071
,-0.022,-1.004,0.071
,-0.018,-1.0,0.074
,-0.023,-1.001,0.071
,-0.021,-1.0,0.075
,-0.019,-1.0,0.074
,-0.024,-1.003,0.069
,-0.019,-1.002,0.074
,-0.021,-1.002,0.072
,-0.024,-1.003,0.07
,-0.018,-1.0,0.074
,-0.023,-1.003,0.07
,-0.021,-1.004,0.072
2025-11-13 23:04:58.094,-0.022,-1.004,0.071
2025-11-13 23:04:58.094,-0.018,-1.0,0.074
2025-11-13 23:04:58.094,-0.023,-1.001,0.071
2025-11-13 23:04:58.094,-0.021,-1.0,0.075
2025-11-13 23:04:58.094,-0.019,-1.0,0.074
2025-11-13 23:04:58.094,-0.024,-1.003,0.069
2025-11-13 23:04:58.094,-0.019,-1.002,0.074
2025-11-13 23:04:58.094,-0.021,-1.002,0.072
2025-11-13 23:04:58.094,-0.024,-1.003,0.07
2025-11-13 23:04:58.094,-0.018,-1.0,0.074
2025-11-13 23:04:58.095,-0.023,-1.003,0.07
2025-11-13 23:04:58.095,-0.021,-1.004,0.072
,-0.019,-1.002,0.074
,-0.023,-1.002,0.069
,-0.02,-1.0,0.074
,-0.021,-1.001,0.073
2025-11-13 23:04:58.110,-0.019,-1.002,0.074
2025-11-13 23:04:58.110,-0.023,-1.002,0.069
2025-11-13 23:04:58.110,-0.02,-1.0,0.074
2025-11-13 23:04:58.110,-0.021,-1.001,0.073
,-0.023,-1.002,0.071
,-0.018,-1.001,0.075
,-0.022,-1.001,0.071
,-0.022,-1.002,0.071
,-0.019,-1.001,0.075
,-0.022,-1.002,0.07
,-0.021,-1.001,0.073
,-0.019,-1.002,0.074
,-0.024,-1.003,0.07
,-0.019,-1.0,0.074
,-0.021,-1.003,0.072
,-0.022,-1.003,0.07
2025-11-13 23:04:58.248,-0.023,-1.002,0.071
2025-11-13 23:04:58.248,-0.018,-1.001,0.075
2025-11-13 23:04:58.248,-0.022,-1.001,0.071
2025-11-13 23:04:58.248,-0.022,-1.002,0.071
2025-11-13 23:04:58.248,-0.019,-1.001,0.075
2025-11-13 23:04:58.248,-0.022,-1.002,0.07
2025-11-13 23:04:58.248,-0.021,-1.001,0.073
2025-11-13 23:04:58.248,-0.019,-1.002,0.074
2025-11-13 23:04:58.248,-0.024,-1.003,0.07
2025-11-13 23:04:58.248,-0.019,-1.0,0.074
2025-11-13 23:04:58.248,-0.021,-1.003,0.072
2025-11-13 23:04:58.248,-0.022,-1.003,0.07
,-0.018,-1.002,0.076
,-0.021,-1.002,0.072
,-0.021,-1.003,0.07
,-0.019,-1.001,0.073
2025-11-13 23:04:58.293,-0.018,-1.002,0.076
2025-11-13 23:04:58.293,-0.021,-1.002,0.072
2025-11-13 23:04:58.293,-0.021,-1.003,0.07
2025-11-13 23:04:58.293,-0.019,-1.001,0.073
,-0.023,-1.004,0.07
,-0.021,-1.003,0.073
,-0.019,-1.001,0.074
,-0.024,-1.004,0.069
,-0.018,-1.003,0.075
,-0.02,-1.003,0.073
,-0.023,-1.004,0.07
,-0.018,-1.002,0.074
2025-11-13 23:04:58.406,-0.023,-1.004,0.07
2025-11-13 23:04:58.406,-0.021,-1.003,0.073
2025-11-13 23:04:58.406,-0.019,-1.001,0.074
2025-11-13 23:04:58.406,-0.024,-1.004,0.069
2025-11-13 23:04:58.406,-0.018,-1.003,0.075
2025-11-13 23:04:58.406,-0.02,-1.003,0.073
2025-11-13 23:04:58.406,-0.023,-1.004,0.07
2025-11-13 23:04:58.406,-0.018,-1.002,0.074
,-0.022,-1.003,0.07
,-0.021,-1.003,0.072
,-0.019,-1.002,0.074
,-0.023,-1.002,0.071
2025-11-13 23:04:58.410,-0.022,-1.003,0.07
2025-11-13 23:04:58.411,-0.021,-1.003,0.072
2025-11-13 23:04:58.411,-0.019,-1.002,0.074
2025-11-13 23:04:58.411,-0.023,-1.002,0.071
,-0.02,-1.002,0.073
,-0.02,-1.002,0.074
,-0.023,-1.003,0.07
,-0.019,-1.003,0.074
,-0.021,-1.002,0.071
,-0.022,-1.001,0.071
,-0.018,-1.001,0.074
,-0.022,-1.003,0.071
,-0.021,-1.002,0.073
,-0.019,-1.002,0.075
,-0.024,-1.003,0.07
,-0.021,-1.003,0.074
2025-11-13 23:04:58.543,-0.02,-1.002,0.073
2025-11-13 23:04:58.543,-0.02,-1.002,0.074
2025-11-13 23:04:58.543,-0.023,-1.003,0.07
2025-11-13 23:04:58.543,-0.019,-1.003,0.074
2025-11-13 23:04:58.543,-0.021,-1.002,0.071
2025-11-13 23:04:58.543,-0.022,-1.001,0.071
2025-11-13 23:04:58.543,-0.018,-1.001,0.074
2025-11-13 23:04:58.543,-0.022,-1.003,0.071
2025-11-13 23:04:58.543,-0.021,-1.002,0.073
2025-11-13 23:04:58.543,-0.019,-1.002,0.075
2025-11-13 23:04:58.543,-0.024,-1.003,0.07
2025-11-13 23:04:58.543,-0.021,-1.003,0.074
,-0.021,-1.002,0.073
,-0.023,-1.002,0.071
,-0.018,-1.001,0.074
,-0.021,-1.003,0.072
2025-11-13 23:04:58.575,-0.021,-1.002,0.073
2025-11-13 23:04:58.575,-0.023,-1.002,0.071
2025-11-13 23:04:58.575,-0.018,-1.001,0.074
2025-11-13 23:04:58.575,-0.021,-1.003,0.072
,-0.021,-1.004,0.071
,-0.018,-1.003,0.075
,-0.023,-1.001,0.071
,-0.021,-1.0,0.072
2025-11-13 23:04:58.594,-0.021,-1.004,0.071
2025-11-13 23:04:58.594,-0.018,-1.003,0.075
2025-11-13 23:04:58.594,-0.023,-1.001,0.071
2025-11-13 23:04:58.594,-0.021,-1.0,0.072
,-0.019,-1.001,0.073
,-0.023,-1.002,0.07
,-0.02,-1.0,0.074
,-0.021,-1.0,0.073
,-0.022,-1.002,0.071
,-0.018,-1.001,0.074
,-0.021,-1.002,0.07
,-0.021,-1.003,0.071
2025-11-13 23:04:58.702,-0.019,-1.001,0.073
2025-11-13 23:04:58.702,-0.023,-1.002,0.07
2025-11-13 23:04:58.702,-0.02,-1.0,0.074
2025-11-13 23:04:58.702,-0.021,-1.0,0.073
2025-11-13 23:04:58.702,-0.022,-1.002,0.071
2025-11-13 23:04:58.702,-0.018,-1.001,0.074
2025-11-13 23:04:58.702,-0.021,-1.002,0.07
2025-11-13 23:04:58.702,-0.021,-1.003,0.071
,-0.019,-1.003,0.073
,-0.023,-1.003,0.071
,-0.02,-1.001,0.074
,-0.023,-1.003,0.07
2025-11-13 23:04:58.720,-0.019,-1.003,0.073
2025-11-13 23:04:58.720,-0.023,-1.003,0.071
2025-11-13 23:04:58.720,-0.02,-1.001,0.074
2025-11-13 23:04:58.720,-0.023,-1.003,0.07
,-0.018,-1.003,0.074
,-0.021,-1.003,0.072
,-0.022,-1.004,0.071
,-0.018,-1.001,0.074
,-0.022,-1.002,0.07
,-0.02,-1.002,0.072
,-0.018,-1.0,0.074
,-0.024,-1.002,0.07
,-0.019,-1.003,0.074
,-0.02,-1.003,0.073
,-0.022,-1.004,0.07
,-0.018,-1.002,0.075
2025-11-13 23:04:58.841,-0.018,-1.003,0.074
2025-11-13 23:04:58.841,-0.021,-1.003,0.072
2025-11-13 23:04:58.841,-0.022,-1.004,0.071
2025-11-13 23:04:58.841,-0.018,-1.001,0.074
2025-11-13 23:04:58.841,-0.022,-1.002,0.07
2025-11-13 23:04:58.841,-0.02,-1.002,0.072
2025-11-13 23:04:58.841,-0.018,-1.0,0.074
2025-11-13 23:04:58.841,-0.024,-1.002,0.07
2025-11-13 23:04:58.841,-0.019,-1.003,0.074
2025-11-13 23:04:58.841,-0.02,-1.003,0.073
2025-11-13 23:04:58.841,-0.022,-1.004,0.07
2025-11-13 23:04:58.841,-0.018,-1.002,0.075
,-0.022,-1.004,0.071
,-0.022,-1.004,0.073
,-0.018,-1.001,0.074
,-0.023,-1.002,0.07
2025-11-13 23:04:58.899,-0.022,-1.004,0.071
2025-11-13 23:04:58.899,-0.022,-1.004,0.073
2025-11-13 23:04:58.899,-0.018,-1.001,0.074
2025-11-13 23:04:58.899,-0.023,-1.002,0.07
,-0.02,-1.001,0.072
,-0.02,-1.001,0.074
,-0.024,-1.003,0.07
,-0.019,-1.001,0.076
,-0.021,-1.002,0.072
,-0.023,-1.002,0.07
,-0.018,-1.001,0.075
,-0.023,-1.003,0.07
2025-11-13 23:04:59.002,-0.02,-1.001,0.072
2025-11-13 23:04:59.002,-0.02,-1.001,0.074
2025-11-13 23:04:59.002,-0.024,-1.003,0.07
2025-11-13 23:04:59.002,-0.019,-1.001,0.076
2025-11-13 23:04:59.002,-0.021,-1.002,0.072
2025-11-13 23:04:59.002,-0.023,-1.002,0.07
2025-11-13 23:04:59.002,-0.018,-1.001,0.075
2025-11-13 23:04:59.002,-0.023,-1.003,0.07
,-0.021,-1.002,0.072
,-0.02,-1.002,0.073
,-0.023,-1.003,0.071
,-0.019,-1.001,0.074
2025-11-13 23:04:59.018,-0.021,-1.002,0.072
2025-11-13 23:04:59.018,-0.02,-1.002,0.073
2025-11-13 23:04:59.018,-0.023,-1.003,0.071
2025-11-13 23:04:59.018,-0.019,-1.001,0.074
,-0.02,-1.002,0.073
,-0.023,-1.004,0.07
,-0.018,-1.002,0.075
,-0.021,-1.003,0.071
2025-11-13 23:04:59.063,-0.02,-1.002,0.073
2025-11-13 23:04:59.063,-0.023,-1.004,0.07
2025-11-13 23:04:59.063,-0.018,-1.002,0.075
2025-11-13 23:04:59.063,-0.021,-1.003,0.071
,-0.021,-1.002,0.071
,-0.018,-1.0,0.075
,-0.023,-1.002,0.071
,-0.019,-1.001,0.073
,-0.02,-1.002,0.073
,-0.024,-1.003,0.07
,-0.019,-1.001,0.075
,-0.022,-1.002,0.073
,-0.022,-1.003,0.07
,-0.019,-1.002,0.075
,-0.023,-1.003,0.069
,-0.021,-1.002,0.071
2025-11-13 23:04:59.164,-0.021,-1.002,0.071
2025-11-13 23:04:59.164,-0.018,-1.0,0.075
2025-11-13 23:04:59.164,-0.023,-1.002,0.071
2025-11-13 23:04:59.164,-0.019,-1.001,0.073
2025-11-13 23:04:59.164,-0.02,-1.002,0.073
2025-11-13 23:04:59.164,-0.024,-1.003,0.07
2025-11-13 23:04:59.165,-0.019,-1.001,0.075
2025-11-13 23:04:59.165,-0.022,-1.002,0.073
2025-11-13 23:04:59.165,-0.022,-1.003,0.07
2025-11-13 23:04:59.165,-0.019,-1.002,0.075
2025-11-13 23:04:59.165,-0.023,-1.003,0.069
2025-11-13 23:04:59.165,-0.021,-1.002,0.071
,-0.02,-1.003,0.072
,-0.024,-1.003,0.069
,-0.02,-1.002,0.074
,-0.021,-1.003,0.073
2025-11-13 23:04:59.190,-0.02,-1.003,0.072
2025-11-13 23:04:59.190,-0.024,-1.003,0.069
2025-11-13 23:04:59.190,-0.02,-1.002,0.074
2025-11-13 23:04:59.190,-0.021,-1.003,0.073
,-0.023,-1.003,0.07
,-0.018,-1.002,0.074
,-0.021,-1.004,0.07
,-0.021,-1.003,0.071
,-0.019,-1.002,0.074
,-0.023,-1.005,0.071
,-0.02,-1.002,0.073
,-0.019,-1.003,0.073
,-0.023,-1.005,0.069
,-0.02,-1.002,0.075
,-0.021,-1.005,0.072
,-0.022,-1.002,0.071
2025-11-13 23:04:59.327,-0.023,-1.003,0.07
2025-11-13 23:04:59.327,-0.018,-1.002,0.074
2025-11-13 23:04:59.327,-0.021,-1.004,0.07
2025-11-13 23:04:59.327,-0.021,-1.003,0.071
2025-11-13 23:04:59.327,-0.019,-1.002,0.074
2025-11-13 23:04:59.327,-0.023,-1.005,0.071
2025-11-13 23:04:59.327,-0.02,-1.002,0.073
2025-11-13 23:04:59.327,-0.019,-1.003,0.073
2025-11-13 23:04:59.327,-0.023,-1.005,0.069
2025-11-13 23:04:59.327,-0.02,-1.002,0.075
2025-11-13 23:04:59.327,-0.021,-1.005,0.072
2025-11-13 23:04:59.327,-0.022,-1.002,0.071
,-0.019,-1.002,0.074
,-0.022,-1.004,0.07
,-0.021,-1.003,0.072
,-0.019,-1.002,0.075
2025-11-13 23:04:59.381,-0.019,-1.002,0.074
2025-11-13 23:04:59.381,-0.022,-1.004,0.07
2025-11-13 23:04:59.381,-0.021,-1.003,0.072
2025-11-13 23:04:59.381,-0.019,-1.002,0.075
,-0.023,-1.005,0.07
,-0.02,-1.003,0.074
,-0.021,-1.002,0.071
,-0.023,-1.003,0.071
,-0.018,-1.001,0.075
,-0.022,-1.003,0.071
,-0.022,-1.003,0.072
,-0.019,-1.001,0.074
2025-11-13 23:04:59.483,-0.023,-1.005,0.07
2025-11-13 23:04:59.483,-0.02,-1.003,0.074
2025-11-13 23:04:59.483,-0.021,-1.002,0.071
2025-11-13 23:04:59.483,-0.023,-1.003,0.071
2025-11-13 23:04:59.483,-0.018,-1.001,0.075
2025-11-13 23:04:59.483,-0.022,-1.003,0.071
2025-11-13 23:04:59.483,-0.022,-1.003,0.072
2025-11-13 23:04:59.483,-0.019,-1.001,0.074
,-0.023,-1.004,0.07
,-0.021,-1.002,0.074
,-0.021,-1.003,0.072
,-0.022,-1.003,0.07
2025-11-13 23:04:59.511,-0.023,-1.004,0.07
2025-11-13 23:04:59.511,-0.021,-1.002,0.074
2025-11-13 23:04:59.511,-0.021,-1.003,0.072
2025-11-13 23:04:59.511,-0.022,-1.003,0.07
,-0.019,-1.001,0.074
,-0.021,-1.003,0.072
,-0.023,-1.002,0.071
,-0.019,-1.0,0.075
2025-11-13 23:04:59.530,-0.019,-1.001,0.074
2025-11-13 23:04:59.530,-0.021,-1.003,0.072
2025-11-13 23:04:59.530,-0.023,-1.002,0.071
2025-11-13 23:04:59.530,-0.019,-1.0,0.075
,-0.023,-1.001,0.071
,-0.021,-1.002,0.072
,-0.019,-1.002,0.074
,-0.023,-1.003,0.07
,-0.019,-1.002,0.074
,-0.021,-1.003,0.071
,-0.024,-1.003,0.07
,-0.018,-1.001,0.074
2025-11-13 23:04:59.638,-0.023,-1.001,0.071
2025-11-13 23:04:59.638,-0.021,-1.002,0.072
2025-11-13 23:04:59.638,-0.019,-1.002,0.074
2025-11-13 23:04:59.638,-0.023,-1.003,0.07
2025-11-13 23:04:59.638,-0.019,-1.002,0.074
2025-11-13 23:04:59.638,-0.021,-1.003,0.071
2025-11-13 23:04:59.638,-0.024,-1.003,0.07
2025-11-13 23:04:59.638,-0.018,-1.001,0.074
,-0.022,-1.002,0.072
,-0.021,-1.001,0.073
,-0.02,-1.0,0.074
,-0.024,-1.001,0.07
2025-11-13 23:04:59.640,-0.022,-1.002,0.072
2025-11-13 23:04:59.640,-0.021,-1.001,0.073
2025-11-13 23:04:59.640,-0.02,-1.0,0.074
2025-11-13 23:04:59.640,-0.024,-1.001,0.07
,-0.021,-1.0,0.074
,-0.021,-1.001,0.072
,-0.022,-1.001,0.07
,-0.019,-1.001,0.073
,-0.022,-1.001,0.07
,-0.022,-1.001,0.072
,-0.018,-1.001,0.075
,-0.023,-1.001,0.07
,-0.02,-1.002,0.072
,-0.019,-1.003,0.074
,-0.023,-1.004,0.07
,-0.02,-1.001,0.073
2025-11-13 23:04:59.821,-0.021,-1.0,0.074
2025-11-13 23:04:59.821,-0.021,-1.001,0.072
2025-11-13 23:04:59.821,-0.022,-1.001,0.07
2025-11-13 23:04:59.821,-0.019,-1.001,0.073
2025-11-13 23:04:59.821,-0.022,-1.001,0.07
2025-11-13 23:04:59.821,-0.022,-1.001,0.072
2025-11-13 23:04:59.821,-0.018,-1.001,0.075
2025-11-13 23:04:59.821,-0.023,-1.001,0.07
2025-11-13 23:04:59.821,-0.02,-1.002,0.072
2025-11-13 23:04:59.821,-0.019,-1.003,0.074
2025-11-13 23:04:59.821,-0.023,-1.004,0.07
2025-11-13 23:04:59.821,-0.02,-1.001,0.073
,-0.021,-1.001,0.072
,-0.022,-1.002,0.071
,-0.019,-1.001,0.074
,-0.022,-1.004,0.071
2025-11-13 23:04:59.822,-0.021,-1.001,0.072
2025-11-13 23:04:59.822,-0.022,-1.002,0.071
2025-11-13 23:04:59.822,-0.019,-1.001,0.074
2025-11-13 23:04:59.822,-0.022,-1.004,0.071
,-0.02,-1.003,0.073
,-0.019,-1.002,0.074
,-0.023,-1.004,0.07
,-0.02,-1.003,0.073
2025-11-13 23:04:59.850,-0.02,-1.003,0.073
2025-11-13 23:04:59.850,-0.019,-1.002,0.074
2025-11-13 23:04:59.850,-0.023,-1.004,0.07
2025-11-13 23:04:59.850,-0.02,-1.003,0.073
,-0.021,-1.002,0.072
,-0.022,-1.003,0.07
,-0.018,-1.002,0.074
,-0.021,-1.003,0.07
2025-11-13 23:04:59.883,-0.021,-1.002,0.072
2025-11-13 23:04:59.883,-0.022,-1.003,0.07
2025-11-13 23:04:59.883,-0.018,-1.002,0.074
2025-11-13 23:04:59.883,-0.021,-1.003,0.07
,-0.021,-1.003,0.072
,-0.019,-1.002,0.075
,-0.023,-1.001,0.071
,-0.02,-1.001,0.074
,-0.02,-1.003,0.073
,-0.023,-1.002,0.07
,-0.02,-1.001,0.074
,-0.021,-1.001,0.072
2025-11-13 23:04:59.985,-0.021,-1.003,0.072
2025-11-13 23:04:59.985,-0.019,-1.002,0.075
2025-11-13 23:04:59.985,-0.023,-1.001,0.071
2025-11-13 23:04:59.985,-0.02,-1.001,0.074
2025-11-13 23:04:59.985,-0.02,-1.003,0.073
2025-11-13 23:04:59.985,-0.023,-1.002,0.07
2025-11-13 23:04:59.985,-0.02,-1.001,0.074
2025-11-13 23:04:59.985,-0.021,-1.001,0.072
,-0.022,-1.003,0.072
,-0.019,-1.002,0.075
,-0.022,-1.003,0.07
,-0.021,-1.003,0.073
2025-11-13 23:05:00.016,-0.022,-1.003,0.072
2025-11-13 23:05:00.016,-0.019,-1.002,0.075
2025-11-13 23:05:00.016,-0.022,-1.003,0.07
2025-11-13 23:05:00.016,-0.021,-1.003,0.073
,-0.02,-1.004,0.074
,-0.019,-1.002,0.074
,-0.022,-1.003,0.072
,-0.023,-1.003,0.071
,-0.019,-1.001,0.074
,-0.022,-1.002,0.071
,-0.021,-1.002,0.071
,-0.018,-1.003,0.074
,-0.023,-1.004,0.07
,-0.02,-1.003,0.073
,-0.021,-1.003,0.072
,-0.024,-1.002,0.071
2025-11-13 23:05:00.146,-0.02,-1.004,0.074
2025-11-13 23:05:00.146,-0.019,-1.002,0.074
2025-11-13 23:05:00.146,-0.022,-1.003,0.072
2025-11-13 23:05:00.146,-0.023,-1.003,0.071
2025-11-13 23:05:00.146,-0.019,-1.001,0.074
2025-11-13 23:05:00.146,-0.022,-1.002,0.071
2025-11-13 23:05:00.146,-0.021,-1.002,0.071
2025-11-13 23:05:00.146,-0.018,-1.003,0.074
2025-11-13 23:05:00.146,-0.023,-1.004,0.07
2025-11-13 23:05:00.146,-0.02,-1.003,0.073
2025-11-13 23:05:00.146,-0.021,-1.003,0.072
2025-11-13 23:05:00.146,-0.024,-1.002,0.071
,-0.019,-1.0,0.075
,-0.022,-1.002,0.072
,-0.022,-1.003,0.071
,-0.02,-1.002,0.074
2025-11-13 23:05:00.195,-0.019,-1.0,0.075
2025-11-13 23:05:00.196,-0.022,-1.002,0.072
2025-11-13 23:05:00.196,-0.022,-1.003,0.071
2025-11-13 23:05:00.196,-0.02,-1.002,0.074
,-0.023,-1.003,0.07
,-0.021,-1.002,0.072
,-0.021,-1.002,0.073
,-0.023,-1.003,0.069
,-0.019,-1.003,0.074
,-0.02,-1.003,0.072
,-0.022,-1.003,0.071
,-0.018,-1.002,0.075
2025-11-13 23:05:00.297,-0.023,-1.003,0.07
2025-11-13 23:05:00.297,-0.021,-1.002,0.072
2025-11-13 23:05:00.297,-0.021,-1.002,0.073
2025-11-13 23:05:00.297,-0.023,-1.003,0.069
2025-11-13 23:05:00.297,-0.019,-1.003,0.074
2025-11-13 23:05:00.297,-0.02,-1.003,0.072
2025-11-13 23:05:00.297,-0.022,-1.003,0.071
2025-11-13 23:05:00.297,-0.018,-1.002,0.075
,-0.021,-1.003,0.07
,-0.022,-1.002,0.072
,-0.02,-1.001,0.075
,-0.023,-1.005,0.07
2025-11-13 23:05:00.323,-0.021,-1.003,0.07
2025-11-13 23:05:00.323,-0.022,-1.002,0.072
2025-11-13 23:05:00.323,-0.02,-1.001,0.075
2025-11-13 23:05:00.323,-0.023,-1.005,0.07
,-0.021,-1.003,0.073
,-0.02,-1.003,0.073
,-0.023,-1.003,0.07
,-0.02,-1.002,0.074
2025-11-13 23:05:00.342,-0.021,-1.003,0.073
2025-11-13 23:05:00.342,-0.02,-1.003,0.073
2025-11-13 23:05:00.342,-0.023,-1.003,0.07
2025-11-13 23:05:00.342,-0.02,-1.002,0.074
,-0.022,-1.004,0.072
,-0.022,-1.003,0.071
,-0.019,-1.002,0.074
,-0.023,-1.003,0.07
,-0.021,-1.002,0.073
,-0.02,-1.003,0.073
,-0.024,-1.003,0.07
,-0.019,-1.002,0.074
2025-11-13 23:05:00.445,-0.022,-1.004,0.072
2025-11-13 23:05:00.445,-0.022,-1.003,0.071
2025-11-13 23:05:00.445,-0.019,-1.002,0.074
2025-11-13 23:05:00.445,-0.023,-1.003,0.07
2025-11-13 23:05:00.445,-0.021,-1.002,0.073
2025-11-13 23:05:00.445,-0.02,-1.003,0.073
2025-11-13 23:05:00.445,-0.024,-1.003,0.07
2025-11-13 23:05:00.445,-0.019,-1.002,0.074
,-0.021,-1.003,0.072
,-0.022,-1.003,0.072
,-0.018,-1.0,0.074
,-0.022,-1.0,0.071
2025-11-13 23:05:00.460,-0.021,-1.003,0.072
2025-11-13 23:05:00.460,-0.022,-1.003,0.072
2025-11-13 23:05:00.460,-0.018,-1.0,0.074
2025-11-13 23:05:00.460,-0.022,-1.0,0.071
,-0.021,-1.001,0.072
,-0.019,-1.001,0.073
,-0.022,-1.003,0.069
,-0.02,-1.003,0.072
,-0.02,-1.002,0.072
,-0.023,-1.003,0.07
,-0.02,-1.002,0.074
,-0.022,-1.003,0.071
,-0.021,-1.002,0.072
,-0.02,-1.002,0.075
,-0.023,-1.003,0.071
,-0.021,-1.002,0.071
2025-11-13 23:05:00.590,-0.021,-1.001,0.072
2025-11-13 23:05:00.590,-0.019,-1.001,0.073
2025-11-13 23:05:00.590,-0.022,-1.003,0.069
2025-11-13 23:05:00.590,-0.02,-1.003,0.072
2025-11-13 23:05:00.590,-0.02,-1.002,0.072
2025-11-13 23:05:00.590,-0.023,-1.003,0.07
2025-11-13 23:05:00.590,-0.02,-1.002,0.074
2025-11-13 23:05:00.590,-0.022,-1.003,0.071
2025-11-13 23:05:00.590,-0.021,-1.002,0.072
2025-11-13 23:05:00.590,-0.02,-1.002,0.075
2025-11-13 23:05:00.590,-0.023,-1.003,0.071
2025-11-13 23:05:00.590,-0.021,-1.002,0.071
,-0.021,-1.004,0.073
,-0.022,-1.004,0.071
,-0.019,-1.002,0.074
,-0.021,-1.004,0.072
2025-11-13 23:05:00.600,-0.021,-1.004,0.073
2025-11-13 23:05:00.600,-0.022,-1.004,0.071
2025-11-13 23:05:00.600,-0.019,-1.002,0.074
2025-11-13 23:05:00.600,-0.021,-1.004,0.072
,-0.022,-1.002,0.07
,-0.021,-1.0,0.074
,-0.023,-1.001,0.071
,-0.021,-1.0,0.073
,-0.019,-1.001,0.073
,-0.023,-1.003,0.07
,-0.02,-1.002,0.073
,-0.021,-1.002,0.072
,-0.022,-1.0,0.071
,-0.018,-1.001,0.073
,-0.021,-1.002,0.071
,-0.021,-1.002,0.072
2025-11-13 23:05:00.754,-0.022,-1.002,0.07
2025-11-13 23:05:00.754,-0.021,-1.0,0.074
2025-11-13 23:05:00.754,-0.023,-1.001,0.071
2025-11-13 23:05:00.754,-0.021,-1.0,0.073
2025-11-13 23:05:00.754,-0.019,-1.001,0.073
2025-11-13 23:05:00.754,-0.023,-1.003,0.07
2025-11-13 23:05:00.754,-0.02,-1.002,0.073
2025-11-13 23:05:00.754,-0.021,-1.002,0.072
2025-11-13 23:05:00.754,-0.022,-1.0,0.071
2025-11-13 23:05:00.754,-0.018,-1.001,0.073
2025-11-13 23:05:00.754,-0.021,-1.002,0.071
2025-11-13 23:05:00.754,-0.021,-1.002,0.072
,-0.02,-1.001,0.074
,-0.022,-1.002,0.07
,-0.02,-1.001,0.073
,-0.019,-1.003,0.072
2025-11-13 23:05:00.780,-0.02,-1.001,0.074
2025-11-13 23:05:00.780,-0.022,-1.002,0.07
2025-11-13 23:05:00.780,-0.02,-1.001,0.073
2025-11-13 23:05:00.780,-0.019,-1.003,0.072
,-0.022,-1.003,0.07
,-0.019,-1.002,0.074
,-0.021,-1.003,0.072
,-0.021,-1.004,0.071
2025-11-13 23:05:00.819,-0.022,-1.003,0.07
2025-11-13 23:05:00.819,-0.019,-1.002,0.074
2025-11-13 23:05:00.819,-0.021,-1.003,0.072
2025-11-13 23:05:00.819,-0.021,-1.004,0.071
,-0.019,-1.003,0.074
,-0.022,-1.003,0.071
,-0.021,-1.002,0.073
,-0.021,-1.002,0.073
,-0.023,-1.005,0.07
,-0.02,-1.003,0.074
,-0.021,-1.003,0.073
,-0.022,-1.003,0.071
,-0.02,-1.003,0.073
,-0.022,-1.003,0.071
,-0.021,-1.002,0.071
,-0.02,-1.0,0.073
2025-11-13 23:05:00.940,-0.019,-1.003,0.074
2025-11-13 23:05:00.940,-0.022,-1.003,0.071
2025-11-13 23:05:00.940,-0.021,-1.002,0.073
2025-11-13 23:05:00.940,-0.021,-1.002,0.073
2025-11-13 23:05:00.941,-0.023,-1.005,0.07
2025-11-13 23:05:00.941,-0.02,-1.003,0.074
2025-11-13 23:05:00.941,-0.021,-1.003,0.073
2025-11-13 23:05:00.941,-0.022,-1.003,0.071
2025-11-13 23:05:00.941,-0.02,-1.003,0.073
2025-11-13 23:05:00.941,-0.022,-1.003,0.071
2025-11-13 23:05:00.941,-0.021,-1.002,0.071
2025-11-13 23:05:00.941,-0.02,-1.0,0.073
,-0.023,-1.002,0.071
,-0.02,-1.004,0.073
,-0.02,-1.004,0.073
,-0.022,-1.003,0.072
2025-11-13 23:05:00.960,-0.023,-1.002,0.071
2025-11-13 23:05:00.960,-0.02,-1.004,0.073
2025-11-13 23:05:00.960,-0.02,-1.004,0.073
2025-11-13 23:05:00.960,-0.022,-1.003,0.072
,-0.02,-1.002,0.074
,-0.021,-1.002,0.073
,-0.023,-1.003,0.071
,-0.02,-1.002,0.073
,-0.022,-1.002,0.071
,-0.021,-1.002,0.074
,-0.02,-1.004,0.074
,-0.021,-1.003,0.071
,-0.019,-1.001,0.073
,-0.021,-1.002,0.073
,-0.022,-1.003,0.071
,-0.02,-1.002,0.074
2025-11-13 23:05:01.112,-0.02,-1.002,0.074
2025-11-13 23:05:01.112,-0.021,-1.002,0.073
2025-11-13 23:05:01.112,-0.023,-1.003,0.071
2025-11-13 23:05:01.112,-0.02,-1.002,0.073
2025-11-13 23:05:01.112,-0.022,-1.002,0.071
2025-11-13 23:05:01.112,-0.021,-1.002,0.074
2025-11-13 23:05:01.112,-0.02,-1.004,0.074
2025-11-13 23:05:01.112,-0.021,-1.003,0.071
2025-11-13 23:05:01.112,-0.019,-1.001,0.073
2025-11-13 23:05:01.112,-0.021,-1.002,0.073
2025-11-13 23:05:01.112,-0.022,-1.003,0.071
2025-11-13 23:05:01.112,-0.02,-1.002,0.074
,-0.021,-1.002,0.072
,-0.021,-1.002,0.071
,-0.019,-1.002,0.074
,-0.021,-1.003,0.072
2025-11-13 23:05:01.142,-0.021,-1.002,0.072
2025-11-13 23:05:01.142,-0.021,-1.002,0.071
2025-11-13 23:05:01.142,-0.019,-1.002,0.074
2025-11-13 23:05:01.142,-0.021,-1.003,0.072
,-0.02,-1.002,0.072
,-0.019,-1.002,0.073
,-0.022,-1.003,0.071
,-0.021,-1.002,0.074
2025-11-13 23:05:01.175,-0.02,-1.002,0.072
2025-11-13 23:05:01.175,-0.019,-1.002,0.073
2025-11-13 23:05:01.175,-0.022,-1.003,0.071
2025-11-13 23:05:01.175,-0.021,-1.002,0.074
,-0.021,-1.003,0.071
,-0.022,-1.002,0.071
,-0.02,-1.002,0.075
,-0.021,-1.002,0.071
,-0.021,-1.002,0.072
,-0.021,-1.003,0.073
,-0.023,-1.006,0.07
,-0.021,-1.003,0.073
2025-11-13 23:05:01.281,-0.021,-1.003,0.071
2025-11-13 23:05:01.281,-0.022,-1.002,0.071
2025-11-13 23:05:01.281,-0.02,-1.002,0.075
2025-11-13 23:05:01.281,-0.021,-1.002,0.071
2025-11-13 23:05:01.281,-0.021,-1.002,0.072
2025-11-13 23:05:01.281,-0.021,-1.003,0.073
2025-11-13 23:05:01.281,-0.023,-1.006,0.07
2025-11-13 23:05:01.281,-0.021,-1.003,0.073
,-0.02,-1.003,0.073
,-0.021,-1.003,0.07
,-0.021,-1.003,0.074
,-0.021,-1.003,0.073
2025-11-13 23:05:01.294,-0.02,-1.003,0.073
2025-11-13 23:05:01.294,-0.021,-1.003,0.07
2025-11-13 23:05:01.294,-0.021,-1.003,0.074
2025-11-13 23:05:01.294,-0.021,-1.003,0.073
,-0.023,-1.002,0.071
,-0.02,-1.002,0.073
,-0.021,-1.003,0.071
,-0.02,-1.002,0.074
,-0.023,-1.002,0.071
,-0.021,-1.0,0.074
,-0.02,-1.001,0.072
,-0.021,-1.001,0.07
,-0.021,-1.0,0.073
,-0.023,-1.001,0.071
,-0.023,-1.0,0.072
,-0.019,-1.002,0.073
2025-11-13 23:05:01.429,-0.023,-1.002,0.071
2025-11-13 23:05:01.429,-0.02,-1.002,0.073
2025-11-13 23:05:01.430,-0.021,-1.003,0.071
2025-11-13 23:05:01.430,-0.02,-1.002,0.074
2025-11-13 23:05:01.430,-0.023,-1.002,0.071
2025-11-13 23:05:01.430,-0.021,-1.0,0.074
2025-11-13 23:05:01.430,-0.02,-1.001,0.072
2025-11-13 23:05:01.430,-0.021,-1.001,0.07
2025-11-13 23:05:01.430,-0.021,-1.0,0.073
2025-11-13 23:05:01.430,-0.023,-1.001,0.071
2025-11-13 23:05:01.430,-0.023,-1.0,0.072
2025-11-13 23:05:01.430,-0.019,-1.002,0.073
,-0.021,-1.004,0.071
,-0.02,-1.003,0.073
,-0.021,-1.001,0.073
,-0.022,-1.001,0.071
2025-11-13 23:05:01.471,-0.021,-1.004,0.071
2025-11-13 23:05:01.471,-0.02,-1.003,0.073
2025-11-13 23:05:01.471,-0.021,-1.001,0.073
2025-11-13 23:05:01.471,-0.022,-1.001,0.071
,-0.018,-1.002,0.073
,-0.021,-1.002,0.072
,-0.022,-1.003,0.071
,-0.021,-1.002,0.074
,-0.022,-1.001,0.071
,-0.021,-1.001,0.071
,-0.021,-1.002,0.074
,-0.023,-1.002,0.072
2025-11-13 23:05:01.579,-0.018,-1.002,0.073
2025-11-13 23:05:01.579,-0.021,-1.002,0.072
2025-11-13 23:05:01.579,-0.022,-1.003,0.071
2025-11-13 23:05:01.579,-0.021,-1.002,0.074
2025-11-13 23:05:01.579,-0.022,-1.001,0.071
2025-11-13 23:05:01.579,-0.021,-1.001,0.071
2025-11-13 23:05:01.579,-0.021,-1.002,0.074
2025-11-13 23:05:01.579,-0.023,-1.002,0.072
,-0.021,-1.001,0.073
,-0.019,-1.001,0.074
,-0.022,-1.0,0.071
,-0.019,-1.0,0.074
2025-11-13 23:05:01.596,-0.021,-1.001,0.073
2025-11-13 23:05:01.596,-0.019,-1.001,0.074
2025-11-13 23:05:01.596,-0.022,-1.0,0.071
2025-11-13 23:05:01.596,-0.019,-1.0,0.074
,-0.021,-1.002,0.072
,-0.022,-1.004,0.071
,-0.02,-1.002,0.074
,-0.021,-1.003,0.072
2025-11-13 23:05:01.643,-0.021,-1.002,0.072
2025-11-13 23:05:01.643,-0.022,-1.004,0.071
2025-11-13 23:05:01.643,-0.02,-1.002,0.074
2025-11-13 23:05:01.643,-0.021,-1.003,0.072
,-0.021,-1.004,0.072
,-0.021,-1.002,0.074
,-0.023,-1.002,0.071
,-0.021,-1.001,0.073
,-0.021,-1.003,0.073
,-0.022,-1.004,0.071
,-0.021,-1.001,0.073
,-0.021,-0.999,0.072
,-0.021,-1.0,0.072
,-0.02,-1.002,0.073
,-0.023,-1.006,0.071
,-0.022,-1.004,0.071
2025-11-13 23:05:01.747,-0.021,-1.004,0.072
2025-11-13 23:05:01.747,-0.021,-1.002,0.074
2025-11-13 23:05:01.747,-0.023,-1.002,0.071
2025-11-13 23:05:01.747,-0.021,-1.001,0.073
2025-11-13 23:05:01.747,-0.021,-1.003,0.073
2025-11-13 23:05:01.747,-0.022,-1.004,0.071
2025-11-13 23:05:01.747,-0.021,-1.001,0.073
2025-11-13 23:05:01.747,-0.021,-0.999,0.072
2025-11-13 23:05:01.747,-0.021,-1.0,0.072
2025-11-13 23:05:01.747,-0.02,-1.002,0.073
2025-11-13 23:05:01.747,-0.023,-1.006,0.071
2025-11-13 23:05:01.747,-0.022,-1.004,0.071
,-0.019,-0.999,0.072
,-0.021,-1.001,0.07
,-0.02,-1.003,0.073
,-0.022,-1.01,0.073
2025-11-13 23:05:01.779,-0.019,-0.999,0.072
2025-11-13 23:05:01.779,-0.021,-1.001,0.07
2025-11-13 23:05:01.779,-0.02,-1.003,0.073
2025-11-13 23:05:01.779,-0.022,-1.01,0.073
,-0.024,-1.004,0.071
,-0.02,-1.0,0.072
,-0.02,-1.0,0.07
,-0.021,-1.002,0.071
,-0.02,-1.003,0.073
,-0.024,-1.004,0.071
,-0.023,-1.002,0.073
,-0.02,-1.005,0.074
,-0.021,-1.005,0.071
,-0.019,-1.001,0.071
,-0.021,-1.0,0.072
,-0.023,-1.001,0.072
2025-11-13 23:05:01.915,-0.024,-1.004,0.071
2025-11-13 23:05:01.915,-0.02,-1.0,0.072
2025-11-13 23:05:01.915,-0.02,-1.0,0.07
2025-11-13 23:05:01.915,-0.021,-1.002,0.071
2025-11-13 23:05:01.915,-0.02,-1.003,0.073
2025-11-13 23:05:01.915,-0.024,-1.004,0.071
2025-11-13 23:05:01.915,-0.023,-1.002,0.073
2025-11-13 23:05:01.915,-0.02,-1.005,0.074
2025-11-13 23:05:01.915,-0.021,-1.005,0.071
2025-11-13 23:05:01.915,-0.019,-1.001,0.071
2025-11-13 23:05:01.915,-0.021,-1.0,0.072
2025-11-13 23:05:01.915,-0.023,-1.001,0.072
,-0.021,-1.004,0.075
,-0.022,-1.008,0.071
,-0.021,-1.007,0.073
,-0.02,-1.003,0.074
,-0.021,-0.999,0.07
,-0.021,-0.999,0.072
,-0.021,-1.002,0.073
,-0.022,-1.006,0.072
,-0.021,-1.006,0.075
,-0.021,-1.003,0.072
,-0.021,-1.001,0.072
,-0.019,-1.002,0.073
2025-11-13 23:05:02.051,-0.021,-1.004,0.075
2025-11-13 23:05:02.051,-0.022,-1.008,0.071
2025-11-13 23:05:02.051,-0.021,-1.007,0.073
2025-11-13 23:05:02.051,-0.02,-1.003,0.074
2025-11-13 23:05:02.051,-0.021,-0.999,0.07
2025-11-13 23:05:02.051,-0.021,-0.999,0.072
2025-11-13 23:05:02.051,-0.021,-1.002,0.073
2025-11-13 23:05:02.051,-0.022,-1.006,0.072
2025-11-13 23:05:02.051,-0.021,-1.006,0.075
2025-11-13 23:05:02.051,-0.021,-1.003,0.072
2025-11-13 23:05:02.051,-0.021,-1.001,0.072
2025-11-13 23:05:02.051,-0.019,-1.002,0.073
,-0.022,-1.003,0.071
,-0.021,-1.001,0.072
,-0.021,-1.001,0.073
,-0.022,-1.004,0.071
2025-11-13 23:05:02.074,-0.022,-1.003,0.071
2025-11-13 23:05:02.074,-0.021,-1.001,0.072
2025-11-13 23:05:02.074,-0.021,-1.001,0.073
2025-11-13 23:05:02.074,-0.022,-1.004,0.071
,-0.022,-1.005,0.074
,-0.021,-1.004,0.072
,-0.021,-0.999,0.069
,-0.019,-0.996,0.071
,-0.019,-1.001,0.071
,-0.021,-1.008,0.073
,-0.021,-1.009,0.074
,-0.024,-1.004,0.072
,-0.022,-0.998,0.072
,-0.018,-0.996,0.072
,-0.02,-1.0,0.07
,-0.019,-1.004,0.073
2025-11-13 23:05:02.209,-0.022,-1.005,0.074
2025-11-13 23:05:02.209,-0.021,-1.004,0.072
2025-11-13 23:05:02.209,-0.021,-0.999,0.069
2025-11-13 23:05:02.209,-0.019,-0.996,0.071
2025-11-13 23:05:02.209,-0.019,-1.001,0.071
2025-11-13 23:05:02.209,-0.021,-1.008,0.073
2025-11-13 23:05:02.209,-0.021,-1.009,0.074
2025-11-13 23:05:02.209,-0.024,-1.004,0.072
2025-11-13 23:05:02.209,-0.022,-0.998,0.072
2025-11-13 23:05:02.209,-0.018,-0.996,0.072
2025-11-13 23:05:02.209,-0.02,-1.0,0.07
2025-11-13 23:05:02.209,-0.019,-1.004,0.073
,-0.022,-1.006,0.073
,-0.023,-1.003,0.073
,-0.02,-1.004,0.074
,-0.019,-1.003,0.07
2025-11-13 23:05:02.220,-0.022,-1.006,0.073
2025-11-13 23:05:02.220,-0.023,-1.003,0.073
2025-11-13 23:05:02.220,-0.02,-1.004,0.074
2025-11-13 23:05:02.220,-0.019,-1.003,0.07
,-0.019,-1.0,0.071
,-0.02,-1.0,0.074
,-0.023,-1.001,0.073
,-0.023,-1.005,0.073
2025-11-13 23:05:02.259,-0.019,-1.0,0.071
2025-11-13 23:05:02.259,-0.02,-1.0,0.074
2025-11-13 23:05:02.259,-0.023,-1.001,0.073
2025-11-13 23:05:02.259,-0.023,-1.005,0.073
,-0.02,-1.006,0.072
,-0.021,-1.003,0.069
,-0.018,-1.0,0.074
,-0.021,-0.999,0.073
,-0.022,-1.001,0.072
,-0.02,-1.003,0.072
,-0.021,-1.004,0.071
,-0.021,-1.006,0.074
2025-11-13 23:05:02.366,-0.02,-1.006,0.072
2025-11-13 23:05:02.366,-0.021,-1.003,0.069
2025-11-13 23:05:02.366,-0.018,-1.0,0.074
2025-11-13 23:05:02.366,-0.021,-0.999,0.073
2025-11-13 23:05:02.366,-0.022,-1.001,0.072
2025-11-13 23:05:02.366,-0.02,-1.003,0.072
2025-11-13 23:05:02.366,-0.021,-1.004,0.071
2025-11-13 23:05:02.366,-0.021,-1.006,0.074
,-0.021,-1.005,0.076
,-0.023,-1.002,0.071
,-0.02,-0.998,0.071
,-0.018,-0.997,0.07
2025-11-13 23:05:02.370,-0.021,-1.005,0.076
2025-11-13 23:05:02.371,-0.023,-1.002,0.071
2025-11-13 23:05:02.371,-0.02,-0.998,0.071
2025-11-13 23:05:02.371,-0.018,-0.997,0.07
,-0.021,-1.003,0.072
,-0.022,-1.007,0.075
,-0.023,-1.007,0.074
,-0.023,-1.001,0.071
,-0.018,-0.998,0.072
,-0.018,-0.997,0.069
,-0.018,-1.001,0.072
,-0.021,-1.009,0.075
2025-11-13 23:05:02.508,-0.021,-1.003,0.072
2025-11-13 23:05:02.508,-0.022,-1.007,0.075
2025-11-13 23:05:02.508,-0.023,-1.007,0.074
2025-11-13 23:05:02.508,-0.023,-1.001,0.071
2025-11-13 23:05:02.508,-0.018,-0.998,0.072
2025-11-13 23:05:02.508,-0.018,-0.997,0.069
2025-11-13 23:05:02.508,-0.018,-1.001,0.072
2025-11-13 23:05:02.508,-0.021,-1.009,0.075
,-0.026,-1.01,0.074
,-0.025,-1.005,0.073
,-0.02,-0.999,0.069
,-0.016,-0.995,0.067
2025-11-13 23:05:02.521,-0.026,-1.01,0.074
2025-11-13 23:05:02.521,-0.025,-1.005,0.073
2025-11-13 23:05:02.521,-0.02,-0.999,0.069
2025-11-13 23:05:02.521,-0.016,-0.995,0.067
,-0.015,-1.0,0.073
,-0.023,-1.007,0.074
,-0.028,-1.009,0.074
,-0.024,-1.005,0.074
,-0.021,-1.002,0.069
,-0.015,-1.001,0.071
,-0.017,-1.0,0.072
,-0.023,-1.002,0.07
,-0.025,-1.003,0.076
,-0.024,-1.005,0.073
,-0.02,-1.007,0.071
,-0.017,-1.005,0.072
2025-11-13 23:05:02.653,-0.015,-1.0,0.073
2025-11-13 23:05:02.653,-0.023,-1.007,0.074
2025-11-13 23:05:02.653,-0.028,-1.009,0.074
2025-11-13 23:05:02.653,-0.024,-1.005,0.074
2025-11-13 23:05:02.653,-0.021,-1.002,0.069
2025-11-13 23:05:02.653,-0.015,-1.001,0.071
2025-11-13 23:05:02.653,-0.017,-1.0,0.072
2025-11-13 23:05:02.653,-0.023,-1.002,0.07
2025-11-13 23:05:02.653,-0.025,-1.003,0.076
2025-11-13 23:05:02.653,-0.024,-1.005,0.073
2025-11-13 23:05:02.653,-0.02,-1.007,0.071
2025-11-13 23:05:02.653,-0.017,-1.005,0.072
,-0.019,-1.0,0.072
,-0.021,-0.997,0.073
,-0.023,-1.0,0.07
,-0.018,-1.007,0.073
2025-11-13 23:05:02.670,-0.019,-1.0,0.072
2025-11-13 23:05:02.670,-0.021,-0.997,0.073
2025-11-13 23:05:02.670,-0.023,-1.0,0.07
2025-11-13 23:05:02.670,-0.018,-1.007,0.073
,-0.021,-1.009,0.074
,-0.023,-1.006,0.074
,-0.02,-1.0,0.074
,-0.02,-0.997,0.07
2025-11-13 23:05:02.720,-0.021,-1.009,0.074
2025-11-13 23:05:02.720,-0.023,-1.006,0.074
2025-11-13 23:05:02.721,-0.02,-1.0,0.074
2025-11-13 23:05:02.721,-0.02,-0.997,0.07
,-0.019,-0.999,0.07
,-0.02,-1.005,0.075
,-0.023,-1.01,0.074
,-0.023,-1.007,0.075
,-0.02,-1.001,0.072
,-0.019,-0.997,0.069
,-0.016,-0.996,0.072
,-0.018,-1.002,0.072
,-0.025,-1.007,0.074
,-0.024,-1.011,0.077
,-0.023,-1.005,0.071
,-0.019,-0.996,0.069
2025-11-13 23:05:02.835,-0.019,-0.999,0.07
2025-11-13 23:05:02.835,-0.02,-1.005,0.075
2025-11-13 23:05:02.835,-0.023,-1.01,0.074
2025-11-13 23:05:02.835,-0.023,-1.007,0.075
2025-11-13 23:05:02.835,-0.02,-1.001,0.072
2025-11-13 23:05:02.835,-0.019,-0.997,0.069
2025-11-13 23:05:02.836,-0.016,-0.996,0.072
2025-11-13 23:05:02.836,-0.018,-1.002,0.072
2025-11-13 23:05:02.836,-0.025,-1.007,0.074
2025-11-13 23:05:02.836,-0.024,-1.011,0.077
2025-11-13 23:05:02.836,-0.023,-1.005,0.071
2025-11-13 23:05:02.836,-0.019,-0.996,0.069
,-0.014,-0.994,0.07
,-0.019,-0.999,0.072
,-0.023,-1.007,0.077
,-0.027,-1.008,0.075
,-0.024,-1.005,0.07
,-0.017,-0.999,0.072
,-0.014,-1.0,0.07
,-0.019,-1.001,0.072
,-0.021,-1.004,0.074
,-0.028,-1.004,0.073
,-0.023,-1.004,0.074
,-0.018,-1.005,0.072
2025-11-13 23:05:02.989,-0.014,-0.994,0.07
2025-11-13 23:05:02.989,-0.019,-0.999,0.072
2025-11-13 23:05:02.989,-0.023,-1.007,0.077
2025-11-13 23:05:02.989,-0.027,-1.008,0.075
2025-11-13 23:05:02.989,-0.024,-1.005,0.07
2025-11-13 23:05:02.989,-0.017,-0.999,0.072
2025-11-13 23:05:02.989,-0.014,-1.0,0.07
2025-11-13 23:05:02.989,-0.019,-1.001,0.072
2025-11-13 23:05:02.989,-0.021,-1.004,0.074
2025-11-13 23:05:02.989,-0.028,-1.004,0.073
2025-11-13 23:05:02.989,-0.023,-1.004,0.074
2025-11-13 23:05:02.989,-0.018,-1.005,0.072
,-0.016,-1.005,0.069
,-0.02,-1.001,0.073
,-0.022,-0.998,0.071
,-0.025,-0.999,0.073
2025-11-13 23:05:03.000,-0.016,-1.005,0.069
2025-11-13 23:05:03.000,-0.02,-1.001,0.073
2025-11-13 23:05:03.000,-0.022,-0.998,0.071
2025-11-13 23:05:03.000,-0.025,-0.999,0.073
,-0.021,-1.002,0.074
,-0.019,-1.008,0.07
,-0.02,-1.008,0.073
,-0.02,-1.004,0.074
2025-11-13 23:05:03.042,-0.021,-1.002,0.074
2025-11-13 23:05:03.042,-0.019,-1.008,0.07
2025-11-13 23:05:03.042,-0.02,-1.008,0.073
2025-11-13 23:05:03.042,-0.02,-1.004,0.074
,-0.023,-0.999,0.072
,-0.022,-0.997,0.072
,-0.02,-0.999,0.071
,-0.021,-1.008,0.071
,-0.02,-1.011,0.075
,-0.022,-1.004,0.073
,-0.021,-0.998,0.071
,-0.019,-0.994,0.072
2025-11-13 23:05:03.144,-0.023,-0.999,0.072
2025-11-13 23:05:03.144,-0.022,-0.997,0.072
2025-11-13 23:05:03.144,-0.02,-0.999,0.071
2025-11-13 23:05:03.144,-0.021,-1.008,0.071
2025-11-13 23:05:03.144,-0.02,-1.011,0.075
2025-11-13 23:05:03.144,-0.022,-1.004,0.073
2025-11-13 23:05:03.144,-0.021,-0.998,0.071
2025-11-13 23:05:03.144,-0.019,-0.994,0.072
,-0.019,-1.0,0.07
,-0.022,-1.005,0.072
,-0.023,-1.009,0.075
,-0.024,-1.007,0.073
2025-11-13 23:05:03.154,-0.019,-1.0,0.07
2025-11-13 23:05:03.154,-0.022,-1.005,0.072
2025-11-13 23:05:03.154,-0.023,-1.009,0.075
2025-11-13 23:05:03.154,-0.024,-1.007,0.073
,-0.021,-1.004,0.072
,-0.017,-1.002,0.07
,-0.02,-0.998,0.07
,-0.021,-0.996,0.074
2025-11-13 23:05:03.190,-0.021,-1.004,0.072
2025-11-13 23:05:03.190,-0.017,-1.002,0.07
2025-11-13 23:05:03.190,-0.02,-0.998,0.07
2025-11-13 23:05:03.190,-0.021,-0.996,0.074
,-0.024,-1.001,0.073
,-0.025,-1.014,0.074
,-0.019,-1.009,0.072
,-0.017,-1.0,0.069
,-0.018,-0.991,0.071
,-0.021,-1.002,0.073
,-0.025,-1.009,0.074
,-0.023,-1.005,0.073
2025-11-13 23:05:03.295,-0.024,-1.001,0.073
2025-11-13 23:05:03.295,-0.025,-1.014,0.074
2025-11-13 23:05:03.295,-0.019,-1.009,0.072
2025-11-13 23:05:03.295,-0.017,-1.0,0.069
2025-11-13 23:05:03.295,-0.018,-0.991,0.071
2025-11-13 23:05:03.295,-0.021,-1.002,0.073
2025-11-13 23:05:03.295,-0.025,-1.009,0.074
2025-11-13 23:05:03.295,-0.023,-1.005,0.073
,-0.019,-0.999,0.07
,-0.017,-1.0,0.071
,-0.018,-1.005,0.074
,-0.024,-1.01,0.072
2025-11-13 23:05:03.309,-0.019,-0.999,0.07
2025-11-13 23:05:03.309,-0.017,-1.0,0.071
2025-11-13 23:05:03.309,-0.018,-1.005,0.074
2025-11-13 23:05:03.309,-0.024,-1.01,0.072
,-0.023,-1.005,0.073
,-0.021,-0.992,0.071
,-0.018,-0.995,0.069
,-0.017,-1.008,0.074
,-0.021,-1.017,0.073
,-0.024,-1.006,0.073
,-0.022,-0.991,0.072
,-0.02,-0.995,0.07
,-0.02,-1.008,0.071
,-0.02,-1.011,0.074
,-0.024,-1.0,0.072
,-0.023,-1.001,0.072
2025-11-13 23:05:03.431,-0.023,-1.005,0.073
2025-11-13 23:05:03.431,-0.021,-0.992,0.071
2025-11-13 23:05:03.431,-0.018,-0.995,0.069
2025-11-13 23:05:03.431,-0.017,-1.008,0.074
2025-11-13 23:05:03.431,-0.021,-1.017,0.073
2025-11-13 23:05:03.431,-0.024,-1.006,0.073
2025-11-13 23:05:03.431,-0.022,-0.991,0.072
2025-11-13 23:05:03.431,-0.02,-0.995,0.07
2025-11-13 23:05:03.431,-0.02,-1.008,0.071
2025-11-13 23:05:03.431,-0.02,-1.011,0.074
2025-11-13 23:05:03.431,-0.024,-1.0,0.072
2025-11-13 23:05:03.431,-0.023,-1.001,0.072
,-0.02,-1.005,0.073
,-0.02,-1.004,0.069
,-0.019,-1.0,0.073
,-0.021,-0.997,0.072
,-0.023,-1.005,0.075
,-0.021,-1.006,0.073
,-0.019,-1.009,0.071
,-0.018,-1.006,0.072
,-0.021,-1.0,0.073
,-0.022,-0.995,0.072
,-0.022,-1.004,0.075
,-0.021,-1.011,0.072
2025-11-13 23:05:03.595,-0.02,-1.005,0.073
2025-11-13 23:05:03.595,-0.02,-1.004,0.069
2025-11-13 23:05:03.595,-0.019,-1.0,0.073
2025-11-13 23:05:03.595,-0.021,-0.997,0.072
2025-11-13 23:05:03.595,-0.023,-1.005,0.075
2025-11-13 23:05:03.595,-0.021,-1.006,0.073
2025-11-13 23:05:03.595,-0.019,-1.009,0.071
2025-11-13 23:05:03.595,-0.018,-1.006,0.072
2025-11-13 23:05:03.595,-0.021,-1.0,0.073
2025-11-13 23:05:03.595,-0.022,-0.995,0.072
2025-11-13 23:05:03.595,-0.022,-1.004,0.075
2025-11-13 23:05:03.595,-0.021,-1.011,0.072
,-0.02,-1.007,0.069
,-0.019,-0.994,0.072
,-0.022,-1.0,0.073
,-0.024,-1.009,0.076
