datetime,AccX,AccY,AccZ,AsX,AsY,AsZ,AngX,AngY,AngZ
2025-11-14 23:49:41.375,-0.006,-1.009,-0.003,-0.305,-0.244,0.244,-88.951,2.285,-151.298
2025-11-14 23:49:41.375,-0.006,-1.008,-0.004,-0.305,-0.122,0.366,-88.951,2.285,-151.298
2025-11-14 23:49:41.375,-0.006,-1.008,-0.004,-0.305,-0.244,0.305,-88.951,2.285,-151.298
2025-11-14 23:49:41.375,-0.005,-1.008,-0.004,-0.305,-0.244,0.366,-88.951,2.285,-151.293
2025-11-14 23:49:41.481,-0.005,-1.007,-0.004,-0.305,-0.244,0.366,-88.951,2.285,-151.293
2025-11-14 23:49:41.481,-0.005,-1.006,-0.003,-0.244,-0.183,0.366,-88.951,2.285,-151.287
2025-11-14 23:49:41.481,-0.005,-1.007,-0.003,-0.305,-0.244,0.305,-88.951,2.285,-151.287
2025-11-14 23:49:41.481,-0.005,-1.008,-0.004,-0.305,-0.183,0.305,-88.951,2.285,-151.287
2025-11-14 23:49:41.481,-0.005,-1.008,-0.003,-0.305,-0.244,0.305,-88.951,2.285,-151.282
2025-11-14 23:49:41.481,-0.005,-1.007,-0.004,-0.305,-0.122,0.305,-88.951,2.285,-151.282
2025-11-14 23:49:41.481,-0.004,-1.006,-0.004,-0.244,-0.183,0.305,-88.951,2.285,-151.282
2025-11-14 23:49:41.482,-0.005,-1.006,-0.003,-0.244,-0.183,0.305,-88.951,2.285,-151.276
2025-11-14 23:49:41.486,-0.005,-1.006,-0.003,-0.244,-0.183,0.305,-88.951,2.285,-151.276
2025-11-14 23:49:41.486,-0.005,-1.006,-0.002,-0.244,-0.183,0.305,-88.951,2.285,-151.276
2025-11-14 23:49:41.486,-0.005,-1.007,-0.003,-0.305,-0.183,0.305,-88.951,2.285,-151.271
2025-11-14 23:49:41.486,-0.005,-1.007,-0.004,-0.244,-0.183,0.305,-88.951,2.285,-151.271
2025-11-14 23:49:41.605,-0.005,-1.008,-0.003,-0.305,-0.122,0.305,-88.951,2.285,-151.271
2025-11-14 23:49:41.606,-0.005,-1.009,-0.003,-0.305,-0.183,0.366,-88.951,2.285,-151.265
2025-11-14 23:49:41.606,-0.005,-1.008,-0.004,-0.244,-0.183,0.305,-88.951,2.285,-151.265
2025-11-14 23:49:41.606,-0.005,-1.009,-0.004,-0.244,-0.183,0.366,-88.951,2.285,-151.265
2025-11-14 23:49:41.606,-0.005,-1.007,-0.002,-0.305,-0.183,0.305,-88.951,2.285,-151.26
2025-11-14 23:49:41.606,-0.005,-1.007,-0.001,-0.305,-0.183,0.305,-88.951,2.285,-151.26
2025-11-14 23:49:41.606,-0.004,-1.006,-0.004,-0.244,-0.244,0.305,-88.951,2.285,-151.26
2025-11-14 23:49:41.606,-0.004,-1.007,-0.004,-0.244,-0.244,0.305,-88.951,2.285,-151.254
2025-11-14 23:49:41.665,-0.005,-1.009,-0.004,-0.244,-0.244,0.305,-88.951,2.285,-151.254
2025-11-14 23:49:41.665,-0.005,-1.007,-0.003,-0.366,-0.183,0.305,-88.951,2.285,-151.249
2025-11-14 23:49:41.665,-0.005,-1.008,-0.004,-0.305,-0.244,0.305,-88.951,2.285,-151.249
2025-11-14 23:49:41.665,-0.005,-1.008,-0.003,-0.244,-0.122,0.244,-88.951,2.285,-151.249
2025-11-14 23:49:41.667,-0.006,-1.008,-0.004,-0.244,-0.183,0.244,-88.951,2.285,-151.243
2025-11-14 23:49:41.667,-0.005,-1.009,-0.003,-0.244,-0.183,0.305,-88.951,2.285,-151.243
2025-11-14 23:49:41.667,-0.005,-1.008,-0.004,-0.244,-0.244,0.244,-88.951,2.285,-151.243
2025-11-14 23:49:41.667,-0.005,-1.008,-0.003,-0.244,-0.183,0.244,-88.951,2.285,-151.238
2025-11-14 23:49:41.671,-0.004,-1.008,-0.003,-0.305,-0.244,0.244,-88.951,2.285,-151.238
2025-11-14 23:49:41.671,-0.005,-1.008,-0.003,-0.305,-0.244,0.305,-88.951,2.28,-151.232
2025-11-14 23:49:41.671,-0.006,-1.007,-0.004,-0.305,-0.183,0.244,-88.951,2.28,-151.232
2025-11-14 23:49:41.671,-0.006,-1.01,-0.005,-0.305,-0.244,0.305,-88.951,2.28,-151.232
2025-11-14 23:49:41.776,-0.005,-1.008,-0.004,-0.244,-0.244,0.366,-88.951,2.28,-151.227
2025-11-14 23:49:41.776,-0.004,-1.008,-0.003,-0.244,-0.244,0.305,-88.951,2.28,-151.227
2025-11-14 23:49:41.776,-0.004,-1.008,-0.004,-0.305,-0.183,0.305,-88.951,2.28,-151.221
2025-11-14 23:49:41.776,-0.005,-1.009,-0.003,-0.305,-0.122,0.305,-88.951,2.28,-151.221
2025-11-14 23:49:41.776,-0.005,-1.008,-0.003,-0.305,-0.122,0.305,-88.951,2.28,-151.221
2025-11-14 23:49:41.776,-0.005,-1.008,-0.003,-0.305,-0.244,0.366,-88.951,2.28,-151.221
2025-11-14 23:49:41.776,-0.005,-1.008,-0.003,-0.305,-0.183,0.305,-88.951,2.28,-151.216
2025-11-14 23:49:41.776,-0.005,-1.007,-0.004,-0.244,-0.244,0.366,-88.951,2.28,-151.216
2025-11-14 23:49:41.787,-0.004,-1.008,-0.003,-0.244,-0.122,0.305,-88.951,2.285,-151.21
2025-11-14 23:49:41.787,-0.005,-1.008,-0.003,-0.244,-0.244,0.305,-88.951,2.28,-151.21
2025-11-14 23:49:41.787,-0.006,-1.007,-0.002,-0.244,-0.122,0.366,-88.951,2.285,-151.21
2025-11-14 23:49:41.787,-0.005,-1.008,-0.004,-0.305,-0.183,0.305,-88.951,2.285,-151.205
2025-11-14 23:49:41.888,-0.005,-1.007,-0.003,-0.244,-0.122,0.244,-88.951,2.28,-151.205
2025-11-14 23:49:41.888,-0.006,-1.006,-0.003,-0.244,-0.183,0.366,-88.951,2.28,-151.205
2025-11-14 23:49:41.888,-0.006,-1.006,-0.002,-0.244,-0.183,0.305,-88.951,2.285,-151.205
2025-11-14 23:49:41.888,-0.005,-1.007,-0.003,-0.244,-0.183,0.305,-88.945,2.285,-151.199
2025-11-14 23:49:41.888,-0.005,-1.007,-0.003,-0.305,-0.183,0.305,-88.945,2.28,-151.199
2025-11-14 23:49:41.888,-0.004,-1.007,-0.004,-0.305,-0.244,0.305,-88.945,2.28,-151.199
2025-11-14 23:49:41.888,-0.005,-1.009,-0.003,-0.305,-0.183,0.366,-88.951,2.285,-151.194
2025-11-14 23:49:41.888,-0.006,-1.009,-0.002,-0.305,-0.244,0.305,-88.951,2.285,-151.194
2025-11-14 23:49:41.908,-0.005,-1.007,-0.003,-0.244,-0.183,0.244,-88.945,2.28,-151.188
2025-11-14 23:49:41.908,-0.006,-1.007,-0.002,-0.305,-0.244,0.305,-88.951,2.28,-151.188
2025-11-14 23:49:41.908,-0.005,-1.008,-0.003,-0.305,-0.244,0.305,-88.951,2.28,-151.183
2025-11-14 23:49:41.908,-0.006,-1.007,-0.003,-0.305,-0.244,0.305,-88.951,2.28,-151.183
2025-11-14 23:49:42.017,-0.005,-1.008,-0.004,-0.305,-0.244,0.366,-88.951,2.28,-151.183
2025-11-14 23:49:42.017,-0.005,-1.008,-0.003,-0.244,-0.183,0.366,-88.951,2.285,-151.177
2025-11-14 23:49:42.017,-0.005,-1.009,-0.004,-0.305,-0.183,0.305,-88.951,2.285,-151.177
2025-11-14 23:49:42.017,-0.005,-1.008,-0.003,-0.244,-0.183,0.305,-88.951,2.285,-151.177
2025-11-14 23:49:42.017,-0.006,-1.007,-0.003,-0.305,-0.183,0.366,-88.951,2.285,-151.172
2025-11-14 23:49:42.017,-0.005,-1.005,-0.004,-0.305,-0.305,0.305,-88.951,2.285,-151.172
2025-11-14 23:49:42.017,-0.005,-1.005,-0.004,-0.305,-0.305,0.366,-88.951,2.285,-151.166
2025-11-14 23:49:42.017,-0.005,-1.007,-0.003,-0.305,-0.183,0.366,-88.951,2.285,-151.166
2025-11-14 23:49:42.025,-0.004,-1.006,-0.002,-0.244,-0.183,0.305,-88.951,2.285,-151.161
2025-11-14 23:49:42.025,-0.005,-1.005,-0.003,-0.305,-0.183,0.305,-88.951,2.285,-151.161
2025-11-14 23:49:42.026,-0.005,-1.007,-0.004,-0.305,-0.244,0.366,-88.951,2.285,-151.161
2025-11-14 23:49:42.026,-0.005,-1.007,-0.004,-0.305,-0.183,0.305,-88.951,2.285,-151.155
2025-11-14 23:49:42.130,-0.006,-1.005,-0.004,-0.305,-0.183,0.366,-88.951,2.285,-151.155
2025-11-14 23:49:42.130,-0.005,-1.006,-0.003,-0.244,-0.183,0.305,-88.951,2.285,-151.155
2025-11-14 23:49:42.130,-0.005,-1.006,-0.003,-0.305,-0.122,0.244,-88.951,2.285,-151.15
2025-11-14 23:49:42.130,-0.005,-1.007,-0.002,-0.244,-0.244,0.305,-88.951,2.285,-151.15
2025-11-14 23:49:42.145,-0.005,-1.006,-0.002,-0.244,-0.183,0.305,-88.951,2.285,-151.15
2025-11-14 23:49:42.145,-0.005,-1.006,-0.004,-0.244,-0.183,0.305,-88.951,2.285,-151.144
2025-11-14 23:49:42.145,-0.005,-1.006,-0.003,-0.244,-0.183,0.366,-88.945,2.285,-151.144
2025-11-14 23:49:42.145,-0.005,-1.007,-0.003,-0.305,-0.244,0.366,-88.945,2.285,-151.144
2025-11-14 23:49:42.187,-0.005,-1.007,-0.003,-0.305,-0.061,0.366,-88.951,2.285,-151.139
2025-11-14 23:49:42.187,-0.005,-1.007,-0.003,-0.305,-0.183,0.244,-88.951,2.285,-151.139
2025-11-14 23:49:42.187,-0.005,-1.006,-0.005,-0.305,-0.183,0.305,-88.951,2.285,-151.139
2025-11-14 23:49:42.187,-0.006,-1.006,-0.004,-0.305,-0.183,0.366,-88.951,2.285,-151.133
2025-11-14 23:49:42.288,-0.005,-1.008,-0.003,-0.305,-0.183,0.366,-88.951,2.285,-151.133
2025-11-14 23:49:42.288,-0.006,-1.009,-0.003,-0.244,-0.244,0.305,-88.951,2.285,-151.133
2025-11-14 23:49:42.288,-0.005,-1.009,-0.003,-0.305,-0.183,0.305,-88.951,2.285,-151.128
2025-11-14 23:49:42.288,-0.005,-1.007,-0.003,-0.305,-0.244,0.305,-88.951,2.285,-151.128
2025-11-14 23:49:42.288,-0.006,-1.008,-0.003,-0.244,-0.183,0.305,-88.951,2.285,-151.122
2025-11-14 23:49:42.288,-0.005,-1.009,-0.003,-0.244,-0.122,0.305,-88.951,2.285,-151.122
2025-11-14 23:49:42.288,-0.006,-1.01,-0.003,-0.305,-0.183,0.244,-88.951,2.285,-151.122
2025-11-14 23:49:42.288,-0.006,-1.007,-0.004,-0.305,-0.183,0.366,-88.951,2.285,-151.122
2025-11-14 23:49:42.288,-0.006,-1.007,-0.003,-0.244,-0.183,0.366,-88.951,2.285,-151.117
2025-11-14 23:49:42.288,-0.006,-1.008,-0.003,-0.244,-0.244,0.244,-88.945,2.285,-151.117
2025-11-14 23:49:42.289,-0.005,-1.008,-0.004,-0.244,-0.183,0.305,-88.945,2.285,-151.111
2025-11-14 23:49:42.289,-0.006,-1.009,-0.003,-0.244,-0.244,0.305,-88.945,2.285,-151.111
2025-11-14 23:49:42.464,-0.006,-1.008,-0.004,-0.244,-0.122,0.305,-88.945,2.285,-151.111
2025-11-14 23:49:42.464,-0.005,-1.008,-0.003,-0.244,-0.122,0.305,-88.945,2.285,-151.111
2025-11-14 23:49:42.464,-0.005,-1.007,-0.004,-0.305,-0.305,0.305,-88.945,2.285,-151.106
2025-11-14 23:49:42.464,-0.006,-1.008,-0.003,-0.244,-0.244,0.244,-88.945,2.285,-151.106
2025-11-14 23:49:42.464,-0.005,-1.007,-0.003,-0.244,-0.244,0.244,-88.945,2.285,-151.1
2025-11-14 23:49:42.464,-0.005,-1.009,-0.003,-0.305,-0.061,0.305,-88.945,2.285,-151.1
2025-11-14 23:49:42.464,-0.006,-1.008,-0.003,-0.244,-0.244,0.305,-88.945,2.285,-151.1
2025-11-14 23:49:42.464,-0.005,-1.008,-0.003,-0.305,-0.244,0.305,-88.945,2.285,-151.095
2025-11-14 23:49:42.464,-0.005,-1.008,-0.003,-0.305,-0.244,0.305,-88.945,2.285,-151.095
2025-11-14 23:49:42.464,-0.004,-1.007,-0.003,-0.305,-0.183,0.366,-88.945,2.285,-151.089
2025-11-14 23:49:42.464,-0.005,-1.008,-0.003,-0.244,-0.244,0.366,-88.945,2.285,-151.089
2025-11-14 23:49:42.464,-0.006,-1.007,-0.003,-0.305,-0.183,0.366,-88.945,2.285,-151.089
2025-11-14 23:49:42.477,-0.005,-1.008,-0.003,-0.305,-0.244,0.366,-88.945,2.285,-151.084
2025-11-14 23:49:42.477,-0.005,-1.008,-0.003,-0.305,-0.183,0.366,-88.945,2.285,-151.084
2025-11-14 23:49:42.477,-0.005,-1.008,-0.002,-0.305,-0.244,0.366,-88.945,2.285,-151.078
2025-11-14 23:49:42.477,-0.006,-1.008,-0.003,-0.305,-0.183,0.366,-88.945,2.291,-151.078
2025-11-14 23:49:42.478,-0.006,-1.007,-0.005,-0.244,-0.183,0.305,-88.945,2.285,-151.078
2025-11-14 23:49:42.478,-0.005,-1.007,-0.004,-0.305,-0.183,0.244,-88.945,2.285,-151.073
2025-11-14 23:49:42.478,-0.006,-1.008,-0.004,-0.305,-0.183,0.305,-88.945,2.285,-151.073
2025-11-14 23:49:42.478,-0.005,-1.008,-0.004,-0.366,-0.122,0.244,-88.945,2.285,-151.073
2025-11-14 23:49:42.605,-0.005,-1.007,-0.003,-0.305,-0.183,0.305,-88.951,2.285,-151.068
2025-11-14 23:49:42.605,-0.005,-1.008,-0.003,-0.305,-0.183,0.305,-88.951,2.285,-151.068
2025-11-14 23:49:42.605,-0.005,-1.008,-0.003,-0.244,-0.183,0.244,-88.945,2.285,-151.068
2025-11-14 23:49:42.605,-0.006,-1.009,-0.003,-0.244,-0.183,0.305,-88.945,2.285,-151.062
2025-11-14 23:49:42.605,-0.005,-1.008,-0.005,-0.244,-0.183,0.244,-88.945,2.285,-151.062
2025-11-14 23:49:42.605,-0.005,-1.008,-0.003,-0.244,-0.122,0.305,-88.945,2.285,-151.062
2025-11-14 23:49:42.605,-0.005,-1.007,-0.003,-0.244,-0.122,0.244,-88.945,2.285,-151.057
2025-11-14 23:49:42.605,-0.005,-1.008,-0.003,-0.244,-0.183,0.305,-88.945,2.285,-151.057
2025-11-14 23:49:42.605,-0.004,-1.008,-0.004,-0.305,-0.183,0.244,-88.945,2.285,-151.057
2025-11-14 23:49:42.605,-0.005,-1.007,-0.003,-0.305,-0.244,0.305,-88.945,2.285,-151.051
2025-11-14 23:49:42.605,-0.005,-1.006,-0.003,-0.305,-0.244,0.305,-88.945,2.285,-151.051
2025-11-14 23:49:42.605,-0.006,-1.006,-0.003,-0.305,-0.244,0.305,-88.945,2.285,-151.051
2025-11-14 23:49:42.660,-0.005,-1.008,-0.003,-0.244,-0.183,0.366,-88.945,2.285,-151.046
2025-11-14 23:49:42.660,-0.005,-1.008,-0.003,-0.244,-0.244,0.305,-88.945,2.285,-151.046
2025-11-14 23:49:42.660,-0.005,-1.008,-0.004,-0.244,-0.122,0.366,-88.945,2.285,-151.04
2025-11-14 23:49:42.660,-0.005,-1.008,-0.003,-0.305,-0.183,0.305,-88.945,2.285,-151.04
2025-11-14 23:49:42.762,-0.005,-1.009,-0.002,-0.366,-0.244,0.305,-88.945,2.285,-151.04
2025-11-14 23:49:42.762,-0.004,-1.008,-0.002,-0.244,-0.244,0.305,-88.945,2.285,-151.035
2025-11-14 23:49:42.762,-0.005,-1.007,-0.003,-0.305,-0.244,0.305,-88.945,2.285,-151.035
2025-11-14 23:49:42.762,-0.005,-1.008,-0.003,-0.244,-0.305,0.244,-88.945,2.285,-151.029
2025-11-14 23:49:42.762,-0.005,-1.008,-0.004,-0.244,-0.183,0.183,-88.945,2.285,-151.029
2025-11-14 23:49:42.762,-0.005,-1.007,-0.004,-0.305,-0.122,0.305,-88.945,2.28,-151.029
2025-11-14 23:49:42.762,-0.005,-1.007,-0.004,-0.305,-0.244,0.427,-88.945,2.28,-151.024
2025-11-14 23:49:42.762,-0.006,-1.007,-0.004,-0.244,-0.244,0.366,-88.945,2.285,-151.024
2025-11-14 23:49:42.776,-0.005,-1.008,-0.004,-0.305,-0.183,0.366,-88.945,2.285,-151.018
2025-11-14 23:49:42.776,-0.005,-1.008,-0.004,-0.305,-0.183,0.305,-88.945,2.285,-151.018
2025-11-14 23:49:42.776,-0.004,-1.008,-0.002,-0.305,-0.122,0.305,-88.945,2.285,-151.018
2025-11-14 23:49:42.776,-0.005,-1.008,-0.002,-0.305,-0.183,0.305,-88.945,2.285,-151.018
2025-11-14 23:49:42.879,-0.005,-1.006,-0.003,-0.305,-0.244,0.244,-88.945,2.285,-151.013
2025-11-14 23:49:42.879,-0.006,-1.007,-0.002,-0.305,-0.183,0.305,-88.945,2.285,-151.013
2025-11-14 23:49:42.879,-0.006,-1.006,-0.003,-0.305,-0.183,0.366,-88.945,2.285,-151.007
2025-11-14 23:49:42.879,-0.006,-1.006,-0.004,-0.305,-0.183,0.366,-88.945,2.285,-151.007
2025-11-14 23:49:42.879,-0.005,-1.006,-0.003,-0.244,-0.183,0.366,-88.945,2.285,-151.007
2025-11-14 23:49:42.879,-0.005,-1.007,-0.003,-0.244,-0.305,0.305,-88.945,2.285,-151.002
2025-11-14 23:49:42.879,-0.005,-1.007,-0.003,-0.244,-0.183,0.305,-88.945,2.285,-151.002
2025-11-14 23:49:42.879,-0.005,-1.007,-0.003,-0.183,-0.305,0.305,-88.945,2.285,-150.996
2025-11-14 23:49:42.896,-0.005,-1.007,-0.003,-0.244,-0.183,0.244,-88.945,2.285,-150.996
2025-11-14 23:49:42.896,-0.005,-1.008,-0.003,-0.305,-0.183,0.305,-88.945,2.285,-150.996
2025-11-14 23:49:42.896,-0.005,-1.008,-0.003,-0.305,-0.183,0.305,-88.945,2.285,-150.991
2025-11-14 23:49:42.896,-0.005,-1.009,-0.003,-0.305,-0.183,0.305,-88.945,2.285,-150.991
2025-11-14 23:49:42.998,-0.005,-1.009,-0.003,-0.244,-0.244,0.366,-88.945,2.285,-150.991
2025-11-14 23:49:42.998,-0.005,-1.007,-0.003,-0.305,-0.183,0.305,-88.945,2.285,-150.985
2025-11-14 23:49:42.998,-0.005,-1.008,-0.003,-0.244,-0.183,0.305,-88.945,2.285,-150.985
2025-11-14 23:49:42.998,-0.006,-1.008,-0.002,-0.305,-0.244,0.305,-88.945,2.285,-150.98
2025-11-14 23:49:42.998,-0.006,-1.008,-0.004,-0.244,-0.122,0.305,-88.945,2.285,-150.98
2025-11-14 23:49:42.998,-0.005,-1.008,-0.004,-0.305,-0.183,0.244,-88.945,2.285,-150.98
2025-11-14 23:49:42.998,-0.005,-1.008,-0.003,-0.305,-0.244,0.244,-88.945,2.285,-150.974
2025-11-14 23:49:42.998,-0.006,-1.008,-0.004,-0.305,-0.183,0.305,-88.945,2.28,-150.974
2025-11-14 23:49:43.045,-0.006,-1.007,-0.003,-0.244,-0.244,0.305,-88.945,2.28,-150.974
2025-11-14 23:49:43.045,-0.006,-1.008,-0.003,-0.244,-0.244,0.305,-88.945,2.28,-150.969
2025-11-14 23:49:43.045,-0.005,-1.008,-0.004,-0.305,-0.183,0.305,-88.945,2.28,-150.969
2025-11-14 23:49:43.045,-0.005,-1.007,-0.003,-0.244,-0.244,0.305,-88.945,2.28,-150.963
2025-11-14 23:49:43.147,-0.006,-1.007,-0.004,-0.305,-0.183,0.305,-88.945,2.28,-150.963
2025-11-14 23:49:43.147,-0.005,-1.008,-0.003,-0.305,-0.183,0.244,-88.945,2.28,-150.963
2025-11-14 23:49:43.147,-0.005,-1.009,-0.004,-0.305,-0.183,0.366,-88.945,2.28,-150.958
2025-11-14 23:49:43.148,-0.005,-1.008,-0.004,-0.305,-0.244,0.366,-88.945,2.285,-150.958
2025-11-14 23:49:43.148,-0.005,-1.008,-0.003,-0.305,-0.244,0.305,-88.945,2.285,-150.958
2025-11-14 23:49:43.148,-0.005,-1.008,-0.003,-0.305,-0.183,0.244,-88.945,2.28,-150.952
2025-11-14 23:49:43.148,-0.006,-1.009,-0.003,-0.305,-0.183,0.244,-88.945,2.28,-150.952
2025-11-14 23:49:43.148,-0.005,-1.007,-0.004,-0.305,-0.244,0.305,-88.945,2.28,-150.947
2025-11-14 23:49:43.148,-0.006,-1.007,-0.003,-0.305,-0.183,0.305,-88.945,2.28,-150.947
2025-11-14 23:49:43.148,-0.004,-1.007,-0.004,-0.244,-0.183,0.305,-88.945,2.28,-150.947
2025-11-14 23:49:43.148,-0.005,-1.006,-0.003,-0.244,-0.244,0.244,-88.945,2.28,-150.941
2025-11-14 23:49:43.148,-0.005,-1.007,-0.004,-0.305,-0.244,0.305,-88.945,2.28,-150.941
2025-11-14 23:49:43.166,-0.005,-1.008,-0.004,-0.244,-0.244,0.305,-88.945,2.28,-150.936
2025-11-14 23:49:43.166,-0.005,-1.008,-0.004,-0.305,-0.183,0.305,-88.945,2.28,-150.936
2025-11-14 23:49:43.166,-0.004,-1.008,-0.004,-0.305,-0.183,0.305,-88.945,2.28,-150.936
2025-11-14 23:49:43.166,-0.005,-1.009,-0.004,-0.305,-0.183,0.305,-88.945,2.28,-150.93
2025-11-14 23:49:43.275,-0.006,-1.008,-0.004,-0.305,-0.183,0.244,-88.945,2.28,-150.93
2025-11-14 23:49:43.275,-0.005,-1.008,-0.004,-0.305,-0.183,0.366,-88.945,2.28,-150.93
2025-11-14 23:49:43.275,-0.005,-1.009,-0.003,-0.305,-0.183,0.366,-88.945,2.28,-150.925
2025-11-14 23:49:43.275,-0.006,-1.009,-0.003,-0.244,-0.183,0.305,-88.945,2.28,-150.925
2025-11-14 23:49:43.284,-0.005,-1.008,-0.004,-0.244,-0.244,0.366,-88.945,2.28,-150.925
2025-11-14 23:49:43.284,-0.006,-1.008,-0.004,-0.305,-0.183,0.305,-88.945,2.28,-150.919
2025-11-14 23:49:43.284,-0.006,-1.007,-0.002,-0.244,-0.244,0.244,-88.945,2.28,-150.919
2025-11-14 23:49:43.284,-0.004,-1.01,-0.004,-0.244,-0.183,0.305,-88.945,2.28,-150.914
2025-11-14 23:49:43.348,-0.005,-1.009,-0.003,-0.305,-0.183,0.427,-88.945,2.28,-150.914
2025-11-14 23:49:43.348,-0.005,-1.007,-0.003,-0.244,-0.244,0.366,-88.945,2.285,-150.914
2025-11-14 23:49:43.348,-0.005,-1.005,-0.004,-0.305,-0.183,0.305,-88.945,2.285,-150.908
2025-11-14 23:49:43.348,-0.004,-1.007,-0.003,-0.305,-0.244,0.183,-88.945,2.28,-150.908
2025-11-14 23:49:43.478,-0.004,-1.011,-0.004,-0.305,-0.183,0.305,-88.945,2.28,-150.908
2025-11-14 23:49:43.478,-0.005,-1.009,-0.004,-0.244,-0.305,0.366,-88.945,2.28,-150.903
2025-11-14 23:49:43.478,-0.005,-1.008,-0.005,-0.244,-0.183,0.366,-88.945,2.285,-150.903
2025-11-14 23:49:43.478,-0.006,-1.006,-0.003,-0.244,-0.183,0.366,-88.945,2.285,-150.897
2025-11-14 23:49:43.494,-0.006,-1.007,-0.002,-0.305,-0.122,0.305,-88.945,2.285,-150.897
2025-11-14 23:49:43.494,-0.005,-1.01,-0.003,-0.244,-0.183,0.305,-88.945,2.285,-150.897
2025-11-14 23:49:43.494,-0.005,-1.009,-0.004,-0.183,-0.183,0.305,-88.945,2.285,-150.892
2025-11-14 23:49:43.494,-0.004,-1.007,-0.003,-0.244,-0.244,0.366,-88.945,2.285,-150.892
2025-11-14 23:49:43.560,-0.005,-1.005,-0.003,-0.244,-0.183,0.305,-88.945,2.285,-150.892
2025-11-14 23:49:43.560,-0.005,-1.009,-0.003,-0.244,-0.183,0.366,-88.945,2.285,-150.886
2025-11-14 23:49:43.560,-0.005,-1.011,-0.004,-0.244,-0.244,0.366,-88.94,2.285,-150.886
2025-11-14 23:49:43.560,-0.005,-1.007,-0.003,-0.244,-0.183,0.427,-88.94,2.285,-150.886
2025-11-14 23:49:43.619,-0.005,-1.005,-0.005,-0.244,-0.244,0.305,-88.94,2.285,-150.881
2025-11-14 23:49:43.619,-0.007,-1.006,-0.004,-0.244,-0.244,0.366,-88.94,2.285,-150.881
2025-11-14 23:49:43.619,-0.006,-1.006,-0.004,-0.244,-0.244,0.366,-88.94,2.285,-150.875
2025-11-14 23:49:43.619,-0.005,-1.007,-0.003,-0.183,-0.183,0.366,-88.94,2.285,-150.875
2025-11-14 23:49:43.674,-0.005,-1.008,-0.003,-0.305,-0.122,0.305,-88.94,2.285,-150.875
2025-11-14 23:49:43.674,-0.006,-1.005,-0.003,-0.244,-0.183,0.244,-88.94,2.285,-150.87
2025-11-14 23:49:43.674,-0.005,-1.009,-0.003,-0.305,-0.244,0.305,-88.94,2.285,-150.87
2025-11-14 23:49:43.674,-0.004,-1.01,-0.004,-0.305,-0.183,0.244,-88.94,2.285,-150.864
2025-11-14 23:49:43.785,-0.005,-1.009,-0.004,-0.305,-0.183,0.305,-88.94,2.285,-150.864
2025-11-14 23:49:43.786,-0.006,-1.008,-0.004,-0.305,-0.183,0.366,-88.94,2.285,-150.864
2025-11-14 23:49:43.786,-0.005,-1.009,-0.004,-0.305,-0.244,0.305,-88.94,2.285,-150.859
2025-11-14 23:49:43.786,-0.005,-1.009,-0.004,-0.244,-0.183,0.366,-88.94,2.285,-150.859
2025-11-14 23:49:43.794,-0.006,-1.009,-0.005,-0.244,-0.183,0.305,-88.94,2.285,-150.859
2025-11-14 23:49:43.794,-0.005,-1.008,-0.003,-0.244,-0.183,0.366,-88.94,2.285,-150.853
2025-11-14 23:49:43.794,-0.005,-1.007,-0.003,-0.305,-0.183,0.366,-88.94,2.285,-150.853
2025-11-14 23:49:43.794,-0.006,-1.008,-0.003,-0.244,-0.244,0.244,-88.94,2.285,-150.853
2025-11-14 23:49:43.855,-0.005,-1.008,-0.003,-0.305,-0.244,0.305,-88.94,2.285,-150.848
2025-11-14 23:49:43.856,-0.005,-1.008,-0.004,-0.305,-0.244,0.366,-88.94,2.285,-150.848
2025-11-14 23:49:43.856,-0.005,-1.008,-0.003,-0.244,-0.244,0.366,-88.94,2.285,-150.842
2025-11-14 23:49:43.856,-0.005,-1.007,-0.004,-0.244,-0.244,0.366,-88.94,2.291,-150.842
2025-11-14 23:49:43.914,-0.005,-1.008,-0.004,-0.244,-0.183,0.305,-88.94,2.291,-150.837
2025-11-14 23:49:43.914,-0.005,-1.007,-0.003,-0.305,-0.183,0.305,-88.94,2.291,-150.837
2025-11-14 23:49:43.914,-0.005,-1.01,-0.004,-0.305,-0.183,0.305,-88.94,2.291,-150.837
2025-11-14 23:49:43.914,-0.005,-1.008,-0.003,-0.244,-0.244,0.305,-88.94,2.285,-150.831
2025-11-14 23:49:43.979,-0.005,-1.008,-0.004,-0.244,-0.244,0.366,-88.94,2.291,-150.831
2025-11-14 23:49:43.979,-0.004,-1.007,-0.004,-0.244,-0.183,0.305,-88.94,2.291,-150.831
2025-11-14 23:49:43.979,-0.006,-1.008,-0.003,-0.244,-0.183,0.305,-88.94,2.291,-150.826
2025-11-14 23:49:43.979,-0.005,-1.009,-0.003,-0.244,-0.244,0.305,-88.94,2.291,-150.826
2025-11-14 23:49:44.036,-0.006,-1.007,-0.003,-0.244,-0.183,0.305,-88.94,2.291,-150.82
2025-11-14 23:49:44.036,-0.005,-1.009,-0.003,-0.244,-0.305,0.366,-88.934,2.291,-150.82
2025-11-14 23:49:44.036,-0.005,-1.009,-0.004,-0.305,-0.244,0.305,-88.94,2.291,-150.815
2025-11-14 23:49:44.036,-0.005,-1.007,-0.003,-0.305,-0.183,0.305,-88.94,2.291,-150.815
2025-11-14 23:49:44.094,-0.006,-1.008,-0.003,-0.183,-0.183,0.305,-88.934,2.291,-150.815
2025-11-14 23:49:44.094,-0.005,-1.008,-0.003,-0.244,-0.183,0.366,-88.934,2.291,-150.809
2025-11-14 23:49:44.094,-0.006,-1.008,-0.002,-0.305,-0.183,0.305,-88.934,2.291,-150.809
2025-11-14 23:49:44.094,-0.006,-1.008,-0.004,-0.305,-0.244,0.305,-88.934,2.291,-150.809
2025-11-14 23:49:44.184,-0.005,-1.006,-0.003,-0.305,-0.244,0.305,-88.934,2.291,-150.804
2025-11-14 23:49:44.184,-0.005,-1.007,-0.003,-0.244,-0.183,0.305,-88.934,2.291,-150.804
2025-11-14 23:49:44.184,-0.004,-1.006,-0.003,-0.244,-0.183,0.305,-88.934,2.291,-150.804
2025-11-14 23:49:44.184,-0.005,-1.006,-0.004,-0.366,-0.183,0.305,-88.934,2.291,-150.798
2025-11-14 23:49:44.290,-0.006,-1.008,-0.004,-0.305,-0.122,0.366,-88.94,2.291,-150.798
2025-11-14 23:49:44.290,-0.004,-1.008,-0.004,-0.305,-0.183,0.305,-88.94,2.291,-150.798
2025-11-14 23:49:44.290,-0.004,-1.007,-0.003,-0.305,-0.244,0.305,-88.94,2.291,-150.793
2025-11-14 23:49:44.290,-0.006,-1.008,-0.003,-0.305,-0.183,0.305,-88.94,2.291,-150.793
2025-11-14 23:49:44.290,-0.006,-1.007,-0.004,-0.305,-0.244,0.305,-88.94,2.291,-150.787
2025-11-14 23:49:44.290,-0.006,-1.009,-0.003,-0.244,-0.244,0.305,-88.94,2.291,-150.787
2025-11-14 23:49:44.290,-0.005,-1.008,-0.003,-0.305,-0.244,0.305,-88.94,2.291,-150.787
2025-11-14 23:49:44.290,-0.005,-1.007,-0.004,-0.305,-0.183,0.244,-88.94,2.291,-150.782
2025-11-14 23:49:44.290,-0.006,-1.007,-0.003,-0.305,-0.183,0.366,-88.94,2.285,-150.771
2025-11-14 23:49:44.290,-0.006,-1.005,-0.004,-0.305,-0.183,0.305,-88.94,2.285,-150.771
2025-11-14 23:49:44.290,-0.005,-1.006,-0.003,-0.305,-0.244,0.305,-88.94,2.285,-150.771
2025-11-14 23:49:44.290,-0.005,-1.006,-0.004,-0.305,-0.244,0.366,-88.94,2.285,-150.765
2025-11-14 23:49:44.290,-0.005,-1.006,-0.003,-0.244,-0.183,0.366,-88.94,2.285,-150.765
2025-11-14 23:49:44.290,-0.005,-1.006,-0.004,-0.244,-0.244,0.305,-88.94,2.285,-150.76
2025-11-14 23:49:44.290,-0.005,-1.007,-0.003,-0.305,-0.244,0.305,-88.94,2.285,-150.76
2025-11-14 23:49:44.290,-0.005,-1.008,-0.003,-0.244,-0.244,0.305,-88.94,2.285,-150.754
2025-11-14 23:49:44.290,-0.004,-1.006,-0.003,-0.244,-0.244,0.366,-88.94,2.291,-150.749
2025-11-14 23:49:44.290,-0.005,-1.008,-0.003,-0.244,-0.183,0.305,-88.94,2.291,-150.743
2025-11-14 23:49:44.290,-0.006,-1.007,-0.003,-0.244,-0.244,0.305,-88.94,2.291,-150.743
2025-11-14 23:49:44.290,-0.005,-1.008,-0.003,-0.244,-0.244,0.305,-88.94,2.291,-150.738
2025-11-14 23:49:44.290,-0.006,-1.007,-0.004,-0.305,-0.122,0.305,-88.94,2.291,-150.727
2025-11-14 23:49:44.290,-0.005,-1.008,-0.003,-0.305,-0.183,0.366,-88.94,2.291,-150.727
2025-11-14 23:49:44.290,-0.004,-1.009,-0.003,-0.366,-0.244,0.244,-88.94,2.291,-150.727
2025-11-14 23:49:44.290,-0.004,-1.008,-0.003,-0.366,-0.244,0.305,-88.94,2.291,-150.721
2025-11-14 23:49:44.290,-0.004,-1.008,-0.004,-0.244,-0.122,0.305,-88.94,2.291,-150.721
2025-11-14 23:49:44.290,-0.005,-1.009,-0.003,-0.244,-0.183,0.305,-88.94,2.291,-150.721
2025-11-14 23:49:44.290,-0.005,-1.009,-0.003,-0.244,-0.244,0.244,-88.94,2.285,-150.716
2025-11-14 23:49:44.290,-0.005,-1.008,-0.003,-0.244,-0.183,0.305,-88.94,2.285,-150.716
2025-11-14 23:49:44.290,-0.005,-1.006,-0.003,-0.244,-0.183,0.305,-88.94,2.285,-150.716
2025-11-14 23:49:44.290,-0.005,-1.008,-0.003,-0.305,-0.244,0.305,-88.94,2.285,-150.71
2025-11-14 23:49:44.290,-0.005,-1.007,-0.003,-0.305,-0.183,0.305,-88.94,2.285,-150.71
2025-11-14 23:49:44.290,-0.005,-1.008,-0.003,-0.244,-0.244,0.366,-88.94,2.285,-150.705
2025-11-14 23:49:44.306,-0.004,-1.008,-0.004,-0.305,-0.183,0.305,-88.94,2.285,-150.705
2025-11-14 23:49:44.306,-0.004,-1.008,-0.003,-0.305,-0.122,0.244,-88.94,2.285,-150.705
2025-11-14 23:49:44.306,-0.005,-1.007,-0.003,-0.244,-0.244,0.244,-88.94,2.285,-150.699
2025-11-14 23:49:44.306,-0.006,-1.007,-0.003,-0.244,-0.183,0.305,-88.94,2.285,-150.699
2025-11-14 23:49:44.411,-0.005,-1.007,-0.003,-0.244,-0.183,0.305,-88.94,2.285,-150.699
2025-11-14 23:49:44.411,-0.004,-1.006,-0.002,-0.244,-0.305,0.366,-88.94,2.285,-150.694
2025-11-14 23:49:44.412,-0.005,-1.008,-0.003,-0.305,-0.183,0.244,-88.94,2.285,-150.694
2025-11-14 23:49:44.412,-0.004,-1.012,-0.004,-0.366,-0.122,0.183,-88.94,2.285,-150.688
2025-11-14 23:49:44.412,-0.005,-1.009,-0.003,-0.244,-0.244,0.305,-88.94,2.285,-150.688
2025-11-14 23:49:44.412,-0.006,-1.007,-0.004,-0.244,-0.244,0.305,-88.94,2.285,-150.688
2025-11-14 23:49:44.412,-0.005,-1.007,-0.004,-0.305,-0.183,0.366,-88.94,2.285,-150.683
2025-11-14 23:49:44.412,-0.004,-1.007,-0.003,-0.305,-0.183,0.366,-88.94,2.285,-150.683
2025-11-14 23:49:44.428,-0.006,-1.007,-0.004,-0.305,-0.183,0.366,-88.94,2.285,-150.683
2025-11-14 23:49:44.428,-0.006,-1.006,-0.004,-0.244,-0.305,0.427,-88.94,2.285,-150.677
2025-11-14 23:49:44.428,-0.005,-1.007,-0.004,-0.305,-0.244,0.366,-88.94,2.285,-150.677
2025-11-14 23:49:44.428,-0.006,-1.008,-0.004,-0.244,-0.244,0.305,-88.94,2.285,-150.672
2025-11-14 23:49:44.531,-0.005,-1.008,-0.004,-0.244,-0.244,0.305,-88.94,2.285,-150.672
2025-11-14 23:49:44.531,-0.006,-1.008,-0.004,-0.244,-0.305,0.305,-88.934,2.285,-150.667
2025-11-14 23:49:44.531,-0.005,-1.007,-0.003,-0.305,-0.305,0.305,-88.934,2.285,-150.667
2025-11-14 23:49:44.532,-0.005,-1.006,-0.003,-0.305,-0.183,0.305,-88.94,2.285,-150.661
2025-11-14 23:49:44.532,-0.004,-1.009,-0.004,-0.305,-0.305,0.305,-88.94,2.285,-150.661
2025-11-14 23:49:44.532,-0.004,-1.008,-0.003,-0.244,-0.244,0.305,-88.94,2.285,-150.656
2025-11-14 23:49:44.532,-0.005,-1.007,-0.003,-0.305,-0.183,0.366,-88.94,2.285,-150.656
2025-11-14 23:49:44.532,-0.005,-1.005,-0.003,-0.305,-0.183,0.305,-88.94,2.285,-150.656
2025-11-14 23:49:44.547,-0.006,-1.007,-0.004,-0.305,-0.183,0.305,-88.94,2.285,-150.65
2025-11-14 23:49:44.547,-0.006,-1.006,-0.003,-0.305,-0.183,0.366,-88.94,2.285,-150.65
2025-11-14 23:49:44.547,-0.005,-1.006,-0.003,-0.305,-0.183,0.366,-88.94,2.291,-150.65
2025-11-14 23:49:44.547,-0.006,-1.005,-0.004,-0.305,-0.244,0.305,-88.94,2.291,-150.645
2025-11-14 23:49:44.649,-0.005,-1.007,-0.003,-0.305,-0.183,0.305,-88.94,2.291,-150.645
2025-11-14 23:49:44.649,-0.005,-1.008,-0.004,-0.305,-0.183,0.366,-88.94,2.291,-150.645
2025-11-14 23:49:44.649,-0.006,-1.009,-0.003,-0.305,-0.183,0.305,-88.94,2.291,-150.639
2025-11-14 23:49:44.649,-0.005,-1.006,-0.003,-0.244,-0.183,0.366,-88.94,2.291,-150.639
2025-11-14 23:49:44.649,-0.005,-1.007,-0.003,-0.244,-0.183,0.366,-88.94,2.291,-150.639
2025-11-14 23:49:44.649,-0.005,-1.009,-0.003,-0.305,-0.183,0.305,-88.94,2.291,-150.634
2025-11-14 23:49:44.649,-0.005,-1.008,-0.003,-0.244,-0.183,0.366,-88.94,2.291,-150.634
2025-11-14 23:49:44.649,-0.005,-1.008,-0.004,-0.244,-0.244,0.366,-88.94,2.291,-150.628
2025-11-14 23:49:44.673,-0.006,-1.007,-0.003,-0.244,-0.183,0.305,-88.94,2.291,-150.628
2025-11-14 23:49:44.673,-0.006,-1.008,-0.004,-0.244,-0.183,0.366,-88.94,2.291,-150.628
2025-11-14 23:49:44.673,-0.006,-1.008,-0.004,-0.305,-0.244,0.366,-88.94,2.291,-150.623
2025-11-14 23:49:44.673,-0.005,-1.008,-0.003,-0.305,-0.183,0.305,-88.94,2.291,-150.623
2025-11-14 23:49:44.777,-0.006,-1.008,-0.004,-0.305,-0.183,0.305,-88.94,2.291,-150.623
2025-11-14 23:49:44.777,-0.004,-1.008,-0.003,-0.366,-0.183,0.305,-88.94,2.291,-150.617
2025-11-14 23:49:44.777,-0.005,-1.009,-0.004,-0.305,-0.183,0.244,-88.94,2.291,-150.617
2025-11-14 23:49:44.777,-0.005,-1.008,-0.003,-0.305,-0.244,0.305,-88.94,2.291,-150.617
2025-11-14 23:49:44.777,-0.004,-1.007,-0.003,-0.305,-0.183,0.305,-88.94,2.291,-150.612
2025-11-14 23:49:44.777,-0.005,-1.007,-0.003,-0.244,-0.183,0.305,-88.94,2.291,-150.612
2025-11-14 23:49:44.777,-0.005,-1.008,-0.003,-0.305,-0.244,0.305,-88.94,2.291,-150.606
2025-11-14 23:49:44.778,-0.005,-1.008,-0.004,-0.305,-0.244,0.366,-88.94,2.291,-150.606
2025-11-14 23:49:44.791,-0.006,-1.009,-0.003,-0.305,-0.183,0.427,-88.94,2.291,-150.606
2025-11-14 23:49:44.791,-0.005,-1.008,-0.005,-0.305,-0.183,0.366,-88.94,2.291,-150.601
2025-11-14 23:49:44.791,-0.005,-1.006,-0.004,-0.305,-0.183,0.366,-88.94,2.291,-150.601
2025-11-14 23:49:44.791,-0.005,-1.007,-0.004,-0.244,-0.244,0.366,-88.94,2.296,-150.595
2025-11-14 23:49:44.921,-0.005,-1.008,-0.003,-0.244,-0.183,0.366,-88.94,2.296,-150.595
2025-11-14 23:49:44.921,-0.005,-1.009,-0.003,-0.244,-0.183,0.305,-88.94,2.296,-150.595
2025-11-14 23:49:44.921,-0.005,-1.009,-0.003,-0.244,-0.122,0.366,-88.94,2.296,-150.595
2025-11-14 23:49:44.921,-0.004,-1.009,-0.002,-0.244,-0.244,0.366,-88.94,2.296,-150.59
2025-11-14 23:49:44.922,-0.004,-1.008,-0.004,-0.244,-0.244,0.366,-88.94,2.296,-150.59
2025-11-14 23:49:44.922,-0.005,-1.006,-0.004,-0.244,-0.305,0.366,-88.94,2.296,-150.584
2025-11-14 23:49:44.922,-0.006,-1.006,-0.002,-0.305,-0.183,0.305,-88.94,2.296,-150.584
2025-11-14 23:49:44.922,-0.006,-1.01,-0.002,-0.244,-0.244,0.305,-88.94,2.296,-150.579
2025-11-14 23:49:44.922,-0.006,-1.006,-0.002,-0.244,-0.183,0.244,-88.94,2.296,-150.579
2025-11-14 23:49:44.922,-0.005,-1.006,-0.004,-0.244,-0.183,0.305,-88.94,2.296,-150.579
2025-11-14 23:49:44.922,-0.006,-1.008,-0.003,-0.244,-0.183,0.366,-88.934,2.296,-150.573
2025-11-14 23:49:44.922,-0.005,-1.008,-0.003,-0.305,-0.244,0.305,-88.94,2.296,-150.573
2025-11-14 23:49:44.936,-0.005,-1.008,-0.003,-0.244,-0.244,0.305,-88.934,2.296,-150.568
2025-11-14 23:49:44.936,-0.005,-1.008,-0.002,-0.244,-0.183,0.366,-88.934,2.296,-150.568
2025-11-14 23:49:44.936,-0.005,-1.008,-0.003,-0.305,-0.183,0.366,-88.934,2.296,-150.568
2025-11-14 23:49:44.936,-0.006,-1.007,-0.004,-0.305,-0.183,0.305,-88.934,2.296,-150.562
2025-11-14 23:49:45.038,-0.006,-1.009,-0.003,-0.244,-0.183,0.366,-88.934,2.296,-150.562
2025-11-14 23:49:45.038,-0.005,-1.009,-0.003,-0.305,-0.183,0.305,-88.934,2.296,-150.562
2025-11-14 23:49:45.038,-0.005,-1.007,-0.003,-0.305,-0.305,0.305,-88.94,2.296,-150.557
2025-11-14 23:49:45.038,-0.004,-1.008,-0.002,-0.305,-0.244,0.305,-88.94,2.296,-150.557
2025-11-14 23:49:45.038,-0.006,-1.008,-0.003,-0.244,-0.244,0.366,-88.934,2.296,-150.551
2025-11-14 23:49:45.038,-0.006,-1.007,-0.004,-0.244,-0.244,0.366,-88.934,2.296,-150.551
2025-11-14 23:49:45.038,-0.006,-1.006,-0.003,-0.305,-0.183,0.366,-88.934,2.296,-150.551
2025-11-14 23:49:45.038,-0.005,-1.009,-0.004,-0.305,-0.183,0.244,-88.934,2.296,-150.546
2025-11-14 23:49:45.056,-0.006,-1.008,-0.004,-0.244,-0.183,0.427,-88.934,2.296,-150.546
2025-11-14 23:49:45.056,-0.005,-1.008,-0.003,-0.305,-0.122,0.305,-88.934,2.296,-150.546
2025-11-14 23:49:45.056,-0.006,-1.009,-0.004,-0.366,-0.183,0.305,-88.94,2.296,-150.54
2025-11-14 23:49:45.056,-0.005,-1.009,-0.004,-0.305,-0.244,0.305,-88.94,2.296,-150.54
2025-11-14 23:49:45.165,-0.005,-1.009,-0.004,-0.305,-0.183,0.244,-88.94,2.296,-150.54
2025-11-14 23:49:45.165,-0.005,-1.008,-0.003,-0.244,-0.183,0.305,-88.94,2.296,-150.535
2025-11-14 23:49:45.165,-0.004,-1.007,-0.003,-0.244,-0.183,0.244,-88.94,2.296,-150.535
2025-11-14 23:49:45.165,-0.005,-1.008,-0.003,-0.305,-0.183,0.305,-88.94,2.296,-150.535
2025-11-14 23:49:45.165,-0.005,-1.009,-0.004,-0.305,-0.183,0.305,-88.94,2.296,-150.529
2025-11-14 23:49:45.165,-0.005,-1.009,-0.003,-0.305,-0.244,0.305,-88.94,2.296,-150.529
2025-11-14 23:49:45.165,-0.005,-1.006,-0.003,-0.305,-0.122,0.305,-88.94,2.296,-150.529
2025-11-14 23:49:45.165,-0.005,-1.008,-0.004,-0.305,-0.305,0.305,-88.94,2.296,-150.524
2025-11-14 23:49:45.181,-0.005,-1.008,-0.003,-0.305,-0.244,0.366,-88.94,2.296,-150.524
2025-11-14 23:49:45.182,-0.005,-1.008,-0.003,-0.244,-0.244,0.366,-88.94,2.296,-150.518
2025-11-14 23:49:45.182,-0.006,-1.009,-0.003,-0.244,-0.183,0.305,-88.94,2.296,-150.518
2025-11-14 23:49:45.182,-0.006,-1.009,-0.003,-0.244,-0.244,0.244,-88.94,2.296,-150.513
2025-11-14 23:49:45.284,-0.005,-1.009,-0.003,-0.305,-0.244,0.305,-88.94,2.296,-150.513
2025-11-14 23:49:45.284,-0.006,-1.007,-0.003,-0.366,-0.183,0.305,-88.94,2.296,-150.507
2025-11-14 23:49:45.284,-0.005,-1.008,-0.003,-0.244,-0.244,0.305,-88.94,2.296,-150.507
2025-11-14 23:49:45.284,-0.005,-1.008,-0.004,-0.305,-0.244,0.305,-88.94,2.296,-150.507
2025-11-14 23:49:45.284,-0.005,-1.009,-0.002,-0.305,-0.183,0.366,-88.94,2.296,-150.502
2025-11-14 23:49:45.284,-0.005,-1.008,-0.003,-0.305,-0.183,0.305,-88.94,2.296,-150.502
2025-11-14 23:49:45.284,-0.006,-1.007,-0.003,-0.244,-0.183,0.244,-88.94,2.296,-150.502
2025-11-14 23:49:45.284,-0.005,-1.008,-0.003,-0.244,-0.183,0.305,-88.94,2.296,-150.496
2025-11-14 23:49:45.299,-0.005,-1.007,-0.004,-0.305,-0.183,0.244,-88.94,2.296,-150.496
2025-11-14 23:49:45.299,-0.006,-1.007,-0.004,-0.244,-0.244,0.244,-88.94,2.296,-150.496
2025-11-14 23:49:45.300,-0.005,-1.008,-0.003,-0.305,-0.183,0.244,-88.94,2.296,-150.491
2025-11-14 23:49:45.300,-0.005,-1.009,-0.003,-0.305,-0.183,0.305,-88.94,2.296,-150.491
2025-11-14 23:49:45.401,-0.005,-1.008,-0.003,-0.244,-0.183,0.244,-88.94,2.296,-150.485
2025-11-14 23:49:45.401,-0.005,-1.007,-0.003,-0.244,-0.183,0.244,-88.94,2.291,-150.485
2025-11-14 23:49:45.401,-0.005,-1.008,-0.003,-0.244,-0.122,0.305,-88.94,2.291,-150.485
2025-11-14 23:49:45.401,-0.005,-1.007,-0.003,-0.305,-0.122,0.305,-88.94,2.291,-150.485
2025-11-14 23:49:45.401,-0.005,-1.008,-0.004,-0.244,-0.244,0.244,-88.94,2.291,-150.48
2025-11-14 23:49:45.401,-0.006,-1.009,-0.003,-0.244,-0.244,0.366,-88.94,2.291,-150.48
2025-11-14 23:49:45.401,-0.006,-1.007,-0.004,-0.244,-0.244,0.305,-88.94,2.291,-150.474
2025-11-14 23:49:45.401,-0.006,-1.007,-0.004,-0.305,-0.183,0.366,-88.934,2.291,-150.474
2025-11-14 23:49:45.416,-0.005,-1.008,-0.004,-0.305,-0.183,0.244,-88.94,2.291,-150.474
2025-11-14 23:49:45.416,-0.005,-1.008,-0.004,-0.305,-0.244,0.305,-88.94,2.291,-150.469
2025-11-14 23:49:45.416,-0.005,-1.008,-0.003,-0.244,-0.244,0.305,-88.94,2.291,-150.469
2025-11-14 23:49:45.416,-0.005,-1.007,-0.004,-0.305,-0.244,0.244,-88.94,2.291,-150.463
2025-11-14 23:49:45.520,-0.005,-1.007,-0.003,-0.244,-0.244,0.305,-88.94,2.291,-150.463
2025-11-14 23:49:45.520,-0.006,-1.007,-0.003,-0.244,-0.183,0.305,-88.934,2.291,-150.463
2025-11-14 23:49:45.520,-0.005,-1.006,-0.004,-0.305,-0.183,0.244,-88.934,2.291,-150.458
2025-11-14 23:49:45.520,-0.005,-1.007,-0.003,-0.244,-0.183,0.305,-88.934,2.291,-150.458
2025-11-14 23:49:45.520,-0.005,-1.006,-0.002,-0.305,-0.183,0.305,-88.934,2.291,-150.458
2025-11-14 23:49:45.520,-0.005,-1.006,-0.003,-0.305,-0.183,0.305,-88.934,2.291,-150.452
2025-11-14 23:49:45.520,-0.006,-1.006,-0.004,-0.305,-0.183,0.305,-88.94,2.291,-150.452
2025-11-14 23:49:45.520,-0.005,-1.006,-0.003,-0.244,-0.122,0.305,-88.94,2.291,-150.452
2025-11-14 23:49:45.535,-0.005,-1.006,-0.004,-0.244,-0.244,0.305,-88.934,2.291,-150.447
2025-11-14 23:49:45.536,-0.005,-0.999,-0.003,-0.183,-0.244,0.305,-88.934,2.291,-150.447
2025-11-14 23:49:45.536,-0.005,-1.016,-0.004,-0.244,-0.183,0.427,-88.934,2.291,-150.441
2025-11-14 23:49:45.536,-0.004,-1.007,-0.003,-0.366,-0.183,0.305,-88.934,2.291,-150.441
2025-11-14 23:49:45.637,-0.005,-1.002,-0.003,-0.305,-0.244,0.305,-88.934,2.291,-150.441
2025-11-14 23:49:45.637,-0.005,-1.002,-0.004,-0.183,-0.244,0.183,-88.934,2.291,-150.436
2025-11-14 23:49:45.637,-0.007,-1.011,-0.004,-0.244,-0.244,0.366,-88.934,2.291,-150.436
2025-11-14 23:49:45.638,-0.005,-1.01,-0.004,-0.305,-0.183,0.427,-88.934,2.291,-150.43
2025-11-14 23:49:45.638,-0.005,-1.004,-0.003,-0.244,-0.183,0.366,-88.934,2.291,-150.43
2025-11-14 23:49:45.638,-0.006,-1.003,-0.003,-0.244,-0.244,0.244,-88.934,2.291,-150.43
2025-11-14 23:49:45.638,-0.006,-1.005,-0.003,-0.244,-0.244,0.305,-88.934,2.291,-150.425
2025-11-14 23:49:45.638,-0.006,-1.009,-0.003,-0.305,-0.244,0.305,-88.934,2.291,-150.425
2025-11-14 23:49:45.665,-0.005,-1.01,-0.004,-0.305,-0.183,0.305,-88.934,2.291,-150.419
2025-11-14 23:49:45.665,-0.005,-1.005,-0.003,-0.305,-0.183,0.305,-88.934,2.291,-150.419
2025-11-14 23:49:45.665,-0.005,-1.005,-0.003,-0.305,-0.183,0.244,-88.934,2.291,-150.419
2025-11-14 23:49:45.665,-0.005,-1.007,-0.003,-0.305,-0.183,0.244,-88.934,2.291,-150.414
2025-11-14 23:49:45.774,-0.006,-1.011,-0.004,-0.305,-0.183,0.366,-88.934,2.291,-150.414
2025-11-14 23:49:45.774,-0.005,-1.007,-0.003,-0.244,-0.183,0.366,-88.934,2.291,-150.414
2025-11-14 23:49:45.774,-0.005,-1.005,-0.002,-0.305,-0.183,0.305,-88.934,2.291,-150.408
2025-11-14 23:49:45.774,-0.005,-1.007,-0.003,-0.305,-0.244,0.244,-88.934,2.291,-150.408
2025-11-14 23:49:45.774,-0.005,-1.008,-0.003,-0.244,-0.244,0.244,-88.934,2.291,-150.403
2025-11-14 23:49:45.774,-0.006,-1.009,-0.003,-0.244,-0.244,0.305,-88.934,2.291,-150.403
2025-11-14 23:49:45.774,-0.005,-1.007,-0.004,-0.305,-0.244,0.305,-88.934,2.291,-150.403
2025-11-14 23:49:45.774,-0.004,-1.007,-0.004,-0.305,-0.183,0.244,-88.934,2.291,-150.397
2025-11-14 23:49:45.776,-0.005,-1.007,-0.003,-0.305,-0.183,0.244,-88.934,2.285,-150.397
2025-11-14 23:49:45.776,-0.005,-1.009,-0.003,-0.305,-0.183,0.305,-88.934,2.285,-150.397
2025-11-14 23:49:45.776,-0.006,-1.009,-0.004,-0.305,-0.122,0.305,-88.934,2.285,-150.392
2025-11-14 23:49:45.776,-0.005,-1.007,-0.004,-0.305,-0.122,0.305,-88.934,2.285,-150.392
2025-11-14 23:49:45.965,-0.005,-1.006,-0.004,-0.305,-0.183,0.244,-88.934,2.285,-150.392
2025-11-14 23:49:45.965,-0.006,-1.008,-0.003,-0.305,-0.183,0.305,-88.94,2.285,-150.386
2025-11-14 23:49:45.965,-0.006,-1.009,-0.004,-0.244,-0.244,0.305,-88.934,2.285,-150.386
2025-11-14 23:49:45.965,-0.005,-1.006,-0.004,-0.244,-0.244,0.305,-88.934,2.285,-150.381
2025-11-14 23:49:45.965,-0.005,-1.005,-0.004,-0.305,-0.244,0.244,-88.934,2.285,-150.381
2025-11-14 23:49:45.965,-0.005,-1.007,-0.005,-0.305,-0.183,0.244,-88.934,2.285,-150.381
2025-11-14 23:49:45.965,-0.005,-1.008,-0.004,-0.305,-0.183,0.305,-88.94,2.285,-150.375
2025-11-14 23:49:45.965,-0.005,-1.007,-0.003,-0.305,-0.244,0.244,-88.94,2.285,-150.375
2025-11-14 23:49:45.965,-0.005,-1.008,-0.003,-0.305,-0.244,0.366,-88.94,2.285,-150.37
2025-11-14 23:49:45.965,-0.006,-1.009,-0.004,-0.244,-0.183,0.305,-88.94,2.285,-150.37
2025-11-14 23:49:45.965,-0.005,-1.008,-0.003,-0.305,-0.183,0.305,-88.94,2.285,-150.37
2025-11-14 23:49:45.965,-0.006,-1.008,-0.004,-0.305,-0.122,0.305,-88.94,2.285,-150.37
2025-11-14 23:49:45.966,-0.006,-1.008,-0.003,-0.305,-0.183,0.366,-88.94,2.285,-150.364
2025-11-14 23:49:45.966,-0.005,-1.007,-0.003,-0.244,-0.183,0.366,-88.94,2.285,-150.364
2025-11-14 23:49:45.966,-0.005,-1.008,-0.003,-0.244,-0.244,0.244,-88.94,2.285,-150.359
2025-11-14 23:49:45.966,-0.005,-1.008,-0.004,-0.244,-0.244,0.244,-88.934,2.285,-150.359
2025-11-14 23:49:45.991,-0.005,-1.006,-0.003,-0.183,-0.305,0.244,-88.934,2.285,-150.353
2025-11-14 23:49:45.991,-0.006,-1.012,-0.003,-0.244,-0.244,0.366,-88.934,2.285,-150.353
2025-11-14 23:49:45.991,-0.005,-1.012,-0.003,-0.305,-0.244,0.244,-88.934,2.285,-150.353
2025-11-14 23:49:45.991,-0.006,-1.005,-0.002,-0.305,-0.305,0.183,-88.934,2.285,-150.348
2025-11-14 23:49:46.092,-0.006,-1.002,-0.002,-0.244,-0.183,0.244,-88.934,2.28,-150.348
2025-11-14 23:49:46.092,-0.005,-1.011,-0.004,-0.183,-0.183,0.427,-88.934,2.285,-150.342
2025-11-14 23:49:46.092,-0.005,-1.01,-0.004,-0.427,-0.183,0.244,-88.934,2.285,-150.342
2025-11-14 23:49:46.092,-0.005,-1.006,-0.003,-0.183,-0.244,0.427,-88.934,2.285,-150.337
2025-11-14 23:49:46.092,-0.005,-1.005,-0.003,-0.183,-0.244,0.305,-88.934,2.285,-150.337
2025-11-14 23:49:46.092,-0.006,-1.007,-0.004,-0.244,-0.244,0.427,-88.934,2.285,-150.337
2025-11-14 23:49:46.092,-0.004,-1.01,-0.003,-0.305,-0.244,0.305,-88.934,2.285,-150.331
2025-11-14 23:49:46.092,-0.004,-1.009,-0.003,-0.305,-0.183,0.305,-88.934,2.285,-150.331
2025-11-14 23:49:46.106,-0.006,-1.007,-0.003,-0.244,-0.183,0.244,-88.934,2.285,-150.326
2025-11-14 23:49:46.106,-0.005,-1.006,-0.004,-0.305,-0.183,0.305,-88.934,2.285,-150.326
2025-11-14 23:49:46.106,-0.005,-1.007,-0.004,-0.244,-0.183,0.244,-88.934,2.285,-150.326
2025-11-14 23:49:46.106,-0.005,-1.008,-0.003,-0.244,-0.244,0.305,-88.934,2.285,-150.32
2025-11-14 23:49:46.214,-0.005,-1.009,-0.004,-0.305,-0.183,0.305,-88.934,2.285,-150.32
2025-11-14 23:49:46.214,-0.005,-1.009,-0.004,-0.244,-0.183,0.244,-88.934,2.285,-150.32
2025-11-14 23:49:46.214,-0.005,-1.006,-0.003,-0.244,-0.244,0.244,-88.934,2.28,-150.315
2025-11-14 23:49:46.214,-0.005,-1.007,-0.003,-0.305,-0.244,0.244,-88.934,2.28,-150.315
2025-11-14 23:49:46.214,-0.006,-1.007,-0.003,-0.305,-0.122,0.305,-88.934,2.28,-150.315
2025-11-14 23:49:46.214,-0.005,-1.007,-0.004,-0.305,-0.183,0.244,-88.934,2.28,-150.309
2025-11-14 23:49:46.214,-0.004,-1.005,-0.003,-0.244,-0.244,0.366,-88.934,2.28,-150.309
2025-11-14 23:49:46.214,-0.006,-1.007,-0.004,-0.305,-0.244,0.366,-88.934,2.28,-150.304
2025-11-14 23:49:46.257,-0.005,-1.008,-0.003,-0.244,-0.183,0.366,-88.934,2.285,-150.304
2025-11-14 23:49:46.257,-0.005,-1.008,-0.004,-0.305,-0.183,0.305,-88.934,2.28,-150.304
2025-11-14 23:49:46.257,-0.006,-1.009,-0.004,-0.244,-0.244,0.366,-88.934,2.285,-150.298
2025-11-14 23:49:46.257,-0.005,-1.008,-0.004,-0.305,-0.244,0.305,-88.934,2.285,-150.298
2025-11-14 23:49:46.358,-0.006,-1.006,-0.004,-0.305,-0.244,0.244,-88.934,2.28,-150.293
2025-11-14 23:49:46.358,-0.006,-1.007,-0.004,-0.305,-0.183,0.305,-88.934,2.28,-150.293
2025-11-14 23:49:46.358,-0.005,-1.008,-0.004,-0.244,-0.183,0.305,-88.934,2.28,-150.293
2025-11-14 23:49:46.358,-0.005,-1.008,-0.003,-0.244,-0.244,0.244,-88.934,2.28,-150.287
2025-11-14 23:49:46.358,-0.005,-1.007,-0.003,-0.244,-0.244,0.305,-88.934,2.28,-150.287
2025-11-14 23:49:46.358,-0.006,-1.008,-0.003,-0.244,-0.244,0.305,-88.934,2.28,-150.282
2025-11-14 23:49:46.358,-0.006,-1.007,-0.003,-0.244,-0.183,0.305,-88.934,2.28,-150.282
2025-11-14 23:49:46.358,-0.005,-1.006,-0.004,-0.305,-0.244,0.305,-88.934,2.28,-150.282
2025-11-14 23:49:46.358,-0.005,-1.007,-0.003,-0.244,-0.183,0.305,-88.934,2.28,-150.276
2025-11-14 23:49:46.359,-0.006,-1.008,-0.003,-0.305,-0.244,0.305,-88.934,2.28,-150.276
2025-11-14 23:49:46.359,-0.005,-1.009,-0.003,-0.244,-0.183,0.305,-88.934,2.28,-150.271
2025-11-14 23:49:46.359,-0.004,-1.008,-0.004,-0.244,-0.244,0.366,-88.934,2.28,-150.271
2025-11-14 23:49:46.377,-0.006,-1.008,-0.004,-0.183,-0.244,0.305,-88.929,2.28,-150.266
2025-11-14 23:49:46.377,-0.006,-1.008,-0.003,-0.244,-0.244,0.305,-88.929,2.28,-150.266
2025-11-14 23:49:46.377,-0.005,-1.008,-0.003,-0.305,-0.183,0.305,-88.929,2.28,-150.266
2025-11-14 23:49:46.377,-0.005,-1.004,-0.004,-0.305,-0.183,0.366,-88.929,2.28,-150.26
2025-11-14 23:49:46.482,-0.004,-1.005,-0.003,-0.305,-0.183,0.305,-88.929,2.28,-150.26
2025-11-14 23:49:46.482,-0.005,-1.007,-0.003,-0.305,-0.183,0.366,-88.934,2.285,-150.26
2025-11-14 23:49:46.482,-0.006,-1.006,-0.003,-0.244,-0.244,0.366,-88.929,2.285,-150.255
2025-11-14 23:49:46.482,-0.005,-1.007,-0.004,-0.244,-0.244,0.366,-88.929,2.285,-150.255
2025-11-14 23:49:46.482,-0.004,-1.009,-0.003,-0.305,-0.244,0.305,-88.929,2.285,-150.249
2025-11-14 23:49:46.482,-0.005,-1.008,-0.003,-0.244,-0.183,0.244,-88.929,2.285,-150.249
2025-11-14 23:49:46.482,-0.005,-1.008,-0.003,-0.244,-0.244,0.305,-88.929,2.285,-150.249
2025-11-14 23:49:46.482,-0.006,-1.009,-0.002,-0.244,-0.244,0.366,-88.929,2.285,-150.244
2025-11-14 23:49:46.496,-0.006,-1.008,-0.004,-0.305,-0.244,0.366,-88.929,2.285,-150.244
2025-11-14 23:49:46.496,-0.006,-1.008,-0.004,-0.305,-0.244,0.305,-88.929,2.285,-150.238
2025-11-14 23:49:46.496,-0.004,-1.008,-0.003,-0.244,-0.244,0.305,-88.929,2.285,-150.238
2025-11-14 23:49:46.496,-0.005,-1.009,-0.004,-0.244,-0.244,0.366,-88.929,2.285,-150.233
2025-11-14 23:49:46.598,-0.005,-1.01,-0.003,-0.305,-0.244,0.305,-88.929,2.285,-150.233
2025-11-14 23:49:46.598,-0.005,-1.009,-0.003,-0.305,-0.183,0.366,-88.929,2.285,-150.227
2025-11-14 23:49:46.598,-0.005,-1.008,-0.004,-0.305,-0.244,0.366,-88.929,2.285,-150.227
2025-11-14 23:49:46.598,-0.006,-1.007,-0.004,-0.305,-0.183,0.366,-88.929,2.285,-150.227
2025-11-14 23:49:46.598,-0.005,-1.006,-0.002,-0.244,-0.183,0.305,-88.929,2.285,-150.222
2025-11-14 23:49:46.598,-0.005,-1.007,-0.004,-0.244,-0.183,0.305,-88.929,2.285,-150.222
2025-11-14 23:49:46.598,-0.005,-1.006,-0.003,-0.305,-0.183,0.366,-88.929,2.285,-150.222
2025-11-14 23:49:46.598,-0.006,-1.005,-0.003,-0.244,-0.244,0.305,-88.929,2.285,-150.216
2025-11-14 23:49:46.674,-0.006,-1.005,-0.005,-0.244,-0.244,0.244,-88.929,2.285,-150.216
2025-11-14 23:49:46.674,-0.005,-1.007,-0.003,-0.305,-0.183,0.305,-88.929,2.285,-150.211
2025-11-14 23:49:46.674,-0.005,-1.007,-0.003,-0.305,-0.244,0.305,-88.929,2.285,-150.211
2025-11-14 23:49:46.674,-0.005,-1.006,-0.004,-0.305,-0.244,0.305,-88.929,2.285,-150.211
2025-11-14 23:49:46.805,-0.006,-1.005,-0.004,-0.305,-0.122,0.305,-88.929,2.285,-150.205
2025-11-14 23:49:46.805,-0.004,-1.009,-0.003,-0.244,-0.244,0.244,-88.929,2.285,-150.205
2025-11-14 23:49:46.805,-0.005,-1.008,-0.003,-0.244,-0.244,0.305,-88.929,2.285,-150.2
2025-11-14 23:49:46.805,-0.005,-1.008,-0.005,-0.244,-0.244,0.244,-88.929,2.285,-150.2
2025-11-14 23:49:46.805,-0.005,-1.006,-0.003,-0.244,-0.244,0.305,-88.929,2.285,-150.2
2025-11-14 23:49:46.805,-0.005,-1.007,-0.003,-0.244,-0.244,0.244,-88.929,2.285,-150.194
2025-11-14 23:49:46.805,-0.006,-1.008,-0.004,-0.366,-0.122,0.305,-88.929,2.285,-150.194
2025-11-14 23:49:46.805,-0.006,-1.008,-0.004,-0.305,-0.183,0.305,-88.929,2.285,-150.194
2025-11-14 23:49:46.858,-0.005,-1.007,-0.004,-0.305,-0.244,0.305,-88.929,2.285,-150.189
2025-11-14 23:49:46.858,-0.005,-1.006,-0.004,-0.366,-0.183,0.305,-88.929,2.285,-150.189
2025-11-14 23:49:46.858,-0.004,-1.008,-0.004,-0.305,-0.244,0.305,-88.929,2.285,-150.183
2025-11-14 23:49:46.858,-0.005,-1.009,-0.003,-0.305,-0.183,0.305,-88.934,2.285,-150.183
2025-11-14 23:49:46.914,-0.005,-1.009,-0.003,-0.305,-0.183,0.305,-88.934,2.285,-150.183
2025-11-14 23:49:46.914,-0.005,-1.008,-0.004,-0.305,-0.122,0.305,-88.934,2.285,-150.178
2025-11-14 23:49:46.914,-0.005,-1.008,-0.002,-0.305,-0.244,0.305,-88.934,2.285,-150.178
2025-11-14 23:49:46.914,-0.005,-1.008,-0.002,-0.244,-0.244,0.305,-88.934,2.285,-150.178
2025-11-14 23:49:46.979,-0.005,-1.007,-0.003,-0.244,-0.183,0.305,-88.934,2.285,-150.172
2025-11-14 23:49:46.979,-0.005,-1.008,-0.004,-0.244,-0.183,0.366,-88.934,2.285,-150.172
2025-11-14 23:49:46.979,-0.005,-1.007,-0.003,-0.244,-0.122,0.366,-88.929,2.285,-150.172
2025-11-14 23:49:46.979,-0.005,-1.009,-0.003,-0.244,-0.122,0.305,-88.929,2.285,-150.167
2025-11-14 23:49:47.108,-0.005,-1.008,-0.003,-0.305,-0.183,0.244,-88.929,2.285,-150.167
2025-11-14 23:49:47.108,-0.006,-1.008,-0.004,-0.244,-0.244,0.305,-88.929,2.285,-150.167
2025-11-14 23:49:47.108,-0.005,-1.008,-0.003,-0.305,-0.244,0.244,-88.929,2.285,-150.161
2025-11-14 23:49:47.108,-0.005,-1.008,-0.004,-0.366,-0.244,0.305,-88.929,2.285,-150.161
2025-11-14 23:49:47.108,-0.005,-1.008,-0.004,-0.305,-0.244,0.305,-88.934,2.285,-150.156
2025-11-14 23:49:47.108,-0.006,-1.007,-0.003,-0.244,-0.183,0.305,-88.934,2.285,-150.156
2025-11-14 23:49:47.108,-0.005,-1.007,-0.003,-0.244,-0.183,0.244,-88.934,2.28,-150.156
2025-11-14 23:49:47.108,-0.006,-1.008,-0.002,-0.305,-0.183,0.305,-88.934,2.28,-150.15
2025-11-14 23:49:47.155,-0.005,-1.009,-0.003,-0.244,-0.122,0.305,-88.934,2.28,-150.15
2025-11-14 23:49:47.155,-0.005,-1.007,-0.004,-0.244,-0.183,0.305,-88.929,2.28,-150.15
2025-11-14 23:49:47.155,-0.005,-1.007,-0.004,-0.244,-0.183,0.305,-88.929,2.28,-150.145
2025-11-14 23:49:47.155,-0.005,-1.007,-0.004,-0.305,-0.183,0.244,-88.929,2.28,-150.145
2025-11-14 23:49:47.186,-0.006,-1.008,-0.003,-0.305,-0.183,0.183,-88.929,2.28,-150.145
2025-11-14 23:49:47.186,-0.005,-1.007,-0.005,-0.305,-0.183,0.244,-88.929,2.28,-150.139
2025-11-14 23:49:47.186,-0.005,-1.007,-0.004,-0.366,-0.183,0.366,-88.934,2.28,-150.139
2025-11-14 23:49:47.186,-0.006,-1.007,-0.003,-0.244,-0.183,0.183,-88.934,2.28,-150.139
2025-11-14 23:49:47.214,-0.005,-1.008,-0.004,-0.244,-0.183,0.183,-88.934,2.28,-150.134
2025-11-14 23:49:47.214,-0.006,-1.008,-0.005,-0.244,-0.183,0.244,-88.934,2.274,-150.134
2025-11-14 23:49:47.214,-0.005,-1.008,-0.003,-0.305,-0.183,0.244,-88.929,2.274,-150.134
2025-11-14 23:49:47.214,-0.005,-1.008,-0.004,-0.244,-0.244,0.305,-88.929,2.274,-150.128
2025-11-14 23:49:47.216,-0.005,-1.006,-0.003,-0.244,-0.183,0.183,-88.929,2.274,-150.128
2025-11-14 23:49:47.217,-0.005,-1.006,-0.003,-0.305,-0.183,0.305,-88.929,2.274,-150.128
2025-11-14 23:49:47.217,-0.004,-1.006,-0.003,-0.244,-0.244,0.305,-88.929,2.274,-150.123
2025-11-14 23:49:47.217,-0.006,-1.007,-0.003,-0.305,-0.244,0.305,-88.929,2.274,-150.123
2025-11-14 23:49:47.246,-0.006,-1.007,-0.003,-0.305,-0.183,0.244,-88.929,2.274,-150.117
2025-11-14 23:49:47.246,-0.005,-1.007,-0.003,-0.305,-0.244,0.244,-88.929,2.274,-150.117
2025-11-14 23:49:47.246,-0.006,-1.006,-0.003,-0.305,-0.244,0.244,-88.934,2.274,-150.112
2025-11-14 23:49:47.246,-0.006,-1.004,-0.002,-0.244,-0.183,0.305,-88.929,2.274,-150.112
2025-11-14 23:49:47.348,-0.006,-1.009,-0.004,-0.244,-0.183,0.305,-88.929,2.274,-150.112
2025-11-14 23:49:47.348,-0.006,-1.007,-0.003,-0.305,-0.244,0.244,-88.929,2.274,-150.106
2025-11-14 23:49:47.348,-0.005,-1.005,-0.004,-0.244,-0.244,0.305,-88.929,2.274,-150.106
2025-11-14 23:49:47.348,-0.005,-1.006,-0.004,-0.244,-0.183,0.244,-88.929,2.274,-150.106
2025-11-14 23:49:47.348,-0.005,-1.006,-0.003,-0.244,-0.244,0.305,-88.929,2.274,-150.101
2025-11-14 23:49:47.348,-0.005,-1.006,-0.004,-0.244,-0.244,0.305,-88.929,2.274,-150.101
2025-11-14 23:49:47.348,-0.006,-1.006,-0.004,-0.305,-0.183,0.305,-88.929,2.274,-150.095
2025-11-14 23:49:47.348,-0.006,-1.005,-0.004,-0.305,-0.244,0.305,-88.929,2.274,-150.095
2025-11-14 23:49:47.348,-0.005,-1.007,-0.004,-0.305,-0.244,0.305,-88.929,2.274,-150.09
2025-11-14 23:49:47.348,-0.004,-1.006,-0.003,-0.244,-0.244,0.305,-88.929,2.274,-150.09
2025-11-14 23:49:47.348,-0.005,-1.008,-0.003,-0.305,-0.244,0.244,-88.929,2.274,-150.09
2025-11-14 23:49:47.348,-0.006,-1.008,-0.003,-0.305,-0.183,0.305,-88.929,2.274,-150.084
2025-11-14 23:49:47.348,-0.006,-1.008,-0.003,-0.305,-0.183,0.305,-88.929,2.274,-150.084
2025-11-14 23:49:47.348,-0.006,-1.007,-0.003,-0.244,-0.183,0.305,-88.929,2.274,-150.079
2025-11-14 23:49:47.348,-0.005,-1.007,-0.003,-0.183,-0.244,0.305,-88.929,2.274,-150.079
2025-11-14 23:49:47.348,-0.005,-1.007,-0.003,-0.244,-0.244,0.305,-88.929,2.274,-150.079
2025-11-14 23:49:47.367,-0.006,-1.007,-0.003,-0.305,-0.183,0.305,-88.929,2.274,-150.073
2025-11-14 23:49:47.367,-0.006,-1.007,-0.004,-0.305,-0.122,0.305,-88.929,2.274,-150.073
2025-11-14 23:49:47.367,-0.006,-1.006,-0.004,-0.305,-0.183,0.305,-88.929,2.274,-150.073
2025-11-14 23:49:47.367,-0.005,-1.008,-0.004,-0.244,-0.244,0.305,-88.929,2.274,-150.068
2025-11-14 23:49:47.394,-0.006,-1.007,-0.004,-0.305,-0.183,0.305,-88.929,2.274,-150.068
2025-11-14 23:49:47.395,-0.005,-1.006,-0.003,-0.305,-0.183,0.366,-88.929,2.274,-150.068
2025-11-14 23:49:47.395,-0.005,-1.007,-0.002,-0.305,-0.183,0.305,-88.929,2.274,-150.062
2025-11-14 23:49:47.395,-0.004,-1.008,-0.004,-0.305,-0.305,0.305,-88.929,2.274,-150.062
2025-11-14 23:49:47.506,-0.005,-1.008,-0.003,-0.244,-0.305,0.305,-88.929,2.274,-150.057
2025-11-14 23:49:47.506,-0.005,-1.008,-0.003,-0.244,-0.244,0.305,-88.929,2.274,-150.057
2025-11-14 23:49:47.506,-0.006,-1.008,-0.003,-0.244,-0.305,0.366,-88.929,2.274,-150.051
2025-11-14 23:49:47.506,-0.005,-1.008,-0.004,-0.305,-0.305,0.305,-88.929,2.274,-150.051
2025-11-14 23:49:47.506,-0.006,-1.007,-0.003,-0.305,-0.183,0.244,-88.929,2.274,-150.046
2025-11-14 23:49:47.506,-0.004,-1.006,-0.003,-0.305,-0.183,0.366,-88.929,2.274,-150.046
2025-11-14 23:49:47.506,-0.005,-1.006,-0.003,-0.305,-0.244,0.305,-88.929,2.274,-150.04
2025-11-14 23:49:47.506,-0.005,-1.005,-0.004,-0.305,-0.244,0.244,-88.929,2.274,-150.04
2025-11-14 23:49:47.506,-0.005,-1.007,-0.003,-0.244,-0.244,0.244,-88.929,2.274,-150.04
2025-11-14 23:49:47.506,-0.006,-1.008,-0.002,-0.244,-0.244,0.366,-88.929,2.274,-150.035
2025-11-14 23:49:47.506,-0.006,-1.008,-0.004,-0.244,-0.244,0.305,-88.929,2.274,-150.035
2025-11-14 23:49:47.506,-0.005,-1.008,-0.004,-0.305,-0.244,0.244,-88.929,2.274,-150.029
2025-11-14 23:49:47.518,-0.005,-1.008,-0.003,-0.244,-0.183,0.244,-88.929,2.269,-150.029
2025-11-14 23:49:47.518,-0.006,-1.008,-0.004,-0.244,-0.244,0.305,-88.929,2.269,-150.024
2025-11-14 23:49:47.518,-0.006,-1.009,-0.003,-0.244,-0.244,0.244,-88.929,2.269,-150.024
2025-11-14 23:49:47.518,-0.006,-1.007,-0.004,-0.305,-0.244,0.244,-88.929,2.269,-150.024
2025-11-14 23:49:47.619,-0.004,-1.007,-0.004,-0.305,-0.183,0.305,-88.929,2.269,-150.018
2025-11-14 23:49:47.619,-0.005,-1.007,-0.004,-0.305,-0.122,0.305,-88.929,2.269,-150.018
2025-11-14 23:49:47.619,-0.005,-1.009,-0.003,-0.244,-0.183,0.305,-88.929,2.269,-150.018
2025-11-14 23:49:47.619,-0.006,-1.008,-0.003,-0.244,-0.183,0.305,-88.929,2.269,-150.013
2025-11-14 23:49:47.619,-0.005,-1.006,-0.004,-0.244,-0.244,0.305,-88.929,2.269,-150.013
2025-11-14 23:49:47.619,-0.006,-1.006,-0.003,-0.305,-0.183,0.305,-88.929,2.269,-150.013
2025-11-14 23:49:47.619,-0.006,-1.005,-0.003,-0.244,-0.183,0.366,-88.929,2.269,-150.007
2025-11-14 23:49:47.619,-0.006,-1.006,-0.004,-0.244,-0.183,0.305,-88.929,2.269,-150.007
2025-11-14 23:49:47.636,-0.006,-1.007,-0.004,-0.244,-0.244,0.366,-88.929,2.269,-150.002
2025-11-14 23:49:47.636,-0.005,-1.006,-0.003,-0.244,-0.183,0.366,-88.929,2.274,-150.002
2025-11-14 23:49:47.636,-0.005,-1.006,-0.004,-0.305,-0.244,0.305,-88.929,2.274,-150.002
2025-11-14 23:49:47.636,-0.004,-1.005,-0.003,-0.305,-0.183,0.305,-88.929,2.274,-149.996
2025-11-14 23:49:47.750,-0.005,-1.006,-0.003,-0.244,-0.183,0.244,-88.929,2.269,-149.996
2025-11-14 23:49:47.750,-0.006,-1.007,-0.003,-0.244,-0.122,0.305,-88.929,2.269,-149.996
2025-11-14 23:49:47.750,-0.004,-1.008,-0.004,-0.305,-0.183,0.305,-88.929,2.269,-149.991
2025-11-14 23:49:47.750,-0.004,-1.008,-0.003,-0.305,-0.244,0.244,-88.929,2.269,-149.991
2025-11-14 23:49:47.750,-0.006,-1.009,-0.003,-0.305,-0.244,0.305,-88.929,2.269,-149.985
2025-11-14 23:49:47.750,-0.006,-1.008,-0.004,-0.244,-0.244,0.305,-88.929,2.269,-149.985
2025-11-14 23:49:47.750,-0.006,-1.008,-0.004,-0.305,-0.183,0.305,-88.929,2.269,-149.985
2025-11-14 23:49:47.750,-0.006,-1.007,-0.004,-0.244,-0.183,0.366,-88.929,2.269,-149.98
2025-11-14 23:49:47.756,-0.005,-1.005,-0.003,-0.244,-0.183,0.366,-88.929,2.274,-149.98
2025-11-14 23:49:47.756,-0.005,-1.007,-0.004,-0.244,-0.244,0.305,-88.929,2.274,-149.98
2025-11-14 23:49:47.756,-0.005,-1.006,-0.004,-0.244,-0.244,0.244,-88.929,2.274,-149.974
2025-11-14 23:49:47.756,-0.006,-1.006,-0.004,-0.305,-0.183,0.244,-88.929,2.269,-149.974
2025-11-14 23:49:47.861,-0.006,-1.006,-0.003,-0.244,-0.183,0.244,-88.929,2.269,-149.969
2025-11-14 23:49:47.861,-0.004,-1.006,-0.003,-0.305,-0.183,0.305,-88.929,2.269,-149.969
2025-11-14 23:49:47.861,-0.005,-1.007,-0.004,-0.244,-0.183,0.305,-88.929,2.269,-149.969
2025-11-14 23:49:47.861,-0.005,-1.006,-0.005,-0.366,-0.122,0.305,-88.929,2.269,-149.963
2025-11-14 23:49:47.861,-0.005,-1.007,-0.004,-0.305,-0.183,0.366,-88.929,2.269,-149.963
2025-11-14 23:49:47.861,-0.005,-1.007,-0.004,-0.244,-0.183,0.366,-88.929,2.269,-149.963
2025-11-14 23:49:47.861,-0.005,-1.008,-0.005,-0.305,-0.183,0.366,-88.929,2.274,-149.958
2025-11-14 23:49:47.861,-0.005,-1.006,-0.004,-0.305,-0.183,0.366,-88.929,2.274,-149.958
2025-11-14 23:49:47.876,-0.005,-1.007,-0.004,-0.244,-0.122,0.244,-88.929,2.274,-149.958
2025-11-14 23:49:47.876,-0.006,-1.009,-0.003,-0.244,-0.244,0.244,-88.929,2.274,-149.958
2025-11-14 23:49:47.876,-0.006,-1.007,-0.005,-0.244,-0.183,0.305,-88.929,2.269,-149.952
2025-11-14 23:49:47.876,-0.005,-1.007,-0.003,-0.244,-0.244,0.244,-88.929,2.269,-149.952
2025-11-14 23:49:47.984,-0.006,-1.008,-0.003,-0.244,-0.183,0.305,-88.929,2.269,-149.947
2025-11-14 23:49:47.984,-0.005,-1.008,-0.004,-0.244,-0.244,0.366,-88.929,2.269,-149.947
2025-11-14 23:49:47.984,-0.006,-1.007,-0.003,-0.244,-0.244,0.305,-88.929,2.269,-149.947
2025-11-14 23:49:47.984,-0.005,-1.007,-0.003,-0.305,-0.244,0.244,-88.929,2.269,-149.941
2025-11-14 23:49:47.984,-0.005,-1.008,-0.003,-0.305,-0.122,0.305,-88.929,2.269,-149.941
2025-11-14 23:49:47.984,-0.005,-1.008,-0.004,-0.244,-0.183,0.244,-88.929,2.269,-149.936
2025-11-14 23:49:47.984,-0.005,-1.008,-0.003,-0.305,-0.244,0.244,-88.929,2.269,-149.936
2025-11-14 23:49:47.984,-0.005,-1.007,-0.003,-0.244,-0.183,0.244,-88.929,2.269,-149.936
2025-11-14 23:49:47.996,-0.006,-1.007,-0.004,-0.244,-0.183,0.305,-88.929,2.269,-149.93
2025-11-14 23:49:47.996,-0.005,-1.007,-0.003,-0.305,-0.183,0.305,-88.929,2.269,-149.93
2025-11-14 23:49:47.996,-0.005,-1.009,-0.003,-0.305,-0.244,0.366,-88.929,2.269,-149.93
2025-11-14 23:49:47.997,-0.006,-1.007,-0.003,-0.244,-0.183,0.305,-88.929,2.269,-149.925
2025-11-14 23:49:48.105,-0.005,-1.007,-0.004,-0.244,-0.244,0.305,-88.929,2.269,-149.925
2025-11-14 23:49:48.105,-0.005,-1.009,-0.004,-0.305,-0.244,0.244,-88.929,2.269,-149.919
2025-11-14 23:49:48.105,-0.005,-1.008,-0.003,-0.305,-0.183,0.244,-88.929,2.269,-149.919
2025-11-14 23:49:48.105,-0.005,-1.008,-0.002,-0.305,-0.183,0.244,-88.929,2.269,-149.919
2025-11-14 23:49:48.115,-0.004,-1.008,-0.004,-0.244,-0.244,0.305,-88.929,2.269,-149.914
2025-11-14 23:49:48.115,-0.004,-1.009,-0.003,-0.244,-0.183,0.305,-88.929,2.269,-149.914
2025-11-14 23:49:48.115,-0.005,-1.006,-0.003,-0.305,-0.183,0.305,-88.929,2.269,-149.914
2025-11-14 23:49:48.115,-0.005,-1.006,-0.003,-0.305,-0.244,0.305,-88.929,2.269,-149.908
2025-11-14 23:49:48.122,-0.006,-1.005,-0.004,-0.366,-0.183,0.244,-88.929,2.269,-149.908
2025-11-14 23:49:48.122,-0.005,-1.007,-0.003,-0.244,-0.244,0.305,-88.929,2.269,-149.903
2025-11-14 23:49:48.122,-0.006,-1.007,-0.003,-0.305,-0.183,0.366,-88.929,2.269,-149.903
2025-11-14 23:49:48.122,-0.005,-1.006,-0.003,-0.244,-0.122,0.305,-88.929,2.269,-149.903
2025-11-14 23:49:48.245,-0.005,-1.007,-0.004,-0.244,-0.183,0.305,-88.929,2.269,-149.897
2025-11-14 23:49:48.245,-0.006,-1.007,-0.005,-0.305,-0.244,0.244,-88.929,2.269,-149.897
2025-11-14 23:49:48.245,-0.006,-1.006,-0.004,-0.244,-0.244,0.183,-88.929,2.269,-149.897
2025-11-14 23:49:48.245,-0.005,-1.006,-0.003,-0.305,-0.183,0.244,-88.929,2.263,-149.892
2025-11-14 23:49:48.245,-0.004,-1.006,-0.004,-0.305,-0.183,0.183,-88.929,2.263,-149.892
2025-11-14 23:49:48.245,-0.006,-1.008,-0.004,-0.244,-0.183,0.305,-88.929,2.263,-149.886
2025-11-14 23:49:48.245,-0.005,-1.007,-0.003,-0.244,-0.244,0.305,-88.929,2.263,-149.886
2025-11-14 23:49:48.245,-0.005,-1.007,-0.003,-0.305,-0.244,0.305,-88.929,2.263,-149.886
2025-11-14 23:49:48.245,-0.005,-1.006,-0.002,-0.305,-0.244,0.366,-88.929,2.263,-149.881
2025-11-14 23:49:48.245,-0.005,-1.008,-0.004,-0.305,-0.244,0.305,-88.929,2.263,-149.881
2025-11-14 23:49:48.245,-0.005,-1.007,-0.003,-0.244,-0.122,0.305,-88.929,2.263,-149.875
2025-11-14 23:49:48.245,-0.005,-1.009,-0.003,-0.305,-0.183,0.305,-88.929,2.263,-149.875
2025-11-14 23:49:48.273,-0.005,-1.009,-0.003,-0.244,-0.183,0.244,-88.929,2.263,-149.875
2025-11-14 23:49:48.273,-0.005,-1.008,-0.003,-0.305,-0.244,0.305,-88.929,2.263,-149.87
2025-11-14 23:49:48.273,-0.006,-1.007,-0.003,-0.244,-0.183,0.305,-88.929,2.263,-149.87
2025-11-14 23:49:48.273,-0.006,-1.007,-0.003,-0.244,-0.244,0.305,-88.929,2.263,-149.87
2025-11-14 23:49:48.374,-0.004,-1.007,-0.003,-0.305,-0.244,0.305,-88.929,2.263,-149.865
2025-11-14 23:49:48.375,-0.005,-1.008,-0.003,-0.305,-0.244,0.366,-88.929,2.263,-149.865
2025-11-14 23:49:48.375,-0.006,-1.008,-0.004,-0.305,-0.244,0.366,-88.929,2.263,-149.859
2025-11-14 23:49:48.375,-0.005,-1.007,-0.003,-0.244,-0.183,0.427,-88.929,2.263,-149.859
2025-11-14 23:49:48.375,-0.004,-1.007,-0.002,-0.305,-0.183,0.244,-88.929,2.269,-149.859
2025-11-14 23:49:48.375,-0.006,-1.008,-0.002,-0.305,-0.122,0.305,-88.929,2.263,-149.854
2025-11-14 23:49:48.375,-0.005,-1.007,-0.004,-0.305,-0.183,0.366,-88.929,2.269,-149.854
2025-11-14 23:49:48.375,-0.005,-1.006,-0.003,-0.305,-0.183,0.305,-88.929,2.269,-149.854
2025-11-14 23:49:48.575,-0.005,-1.008,-0.003,-0.305,-0.244,0.427,-88.929,2.269,-149.848
2025-11-14 23:49:48.575,-0.005,-1.01,-0.003,-0.244,-0.183,0.305,-88.929,2.269,-149.848
2025-11-14 23:49:48.575,-0.005,-1.007,-0.003,-0.305,-0.183,0.244,-88.929,2.269,-149.848
2025-11-14 23:49:48.575,-0.006,-1.006,-0.004,-0.183,-0.244,0.305,-88.929,2.269,-149.843
2025-11-14 23:49:48.575,-0.005,-1.007,-0.004,-0.244,-0.244,0.366,-88.929,2.269,-149.843
2025-11-14 23:49:48.575,-0.006,-1.01,-0.004,-0.244,-0.183,0.305,-88.929,2.269,-149.837
2025-11-14 23:49:48.575,-0.006,-1.01,-0.003,-0.366,-0.183,0.305,-88.929,2.269,-149.837
2025-11-14 23:49:48.575,-0.005,-1.008,-0.002,-0.305,-0.244,0.305,-88.929,2.269,-149.837
2025-11-14 23:49:48.575,-0.005,-1.006,-0.003,-0.244,-0.183,0.244,-88.929,2.269,-149.832
2025-11-14 23:49:48.575,-0.006,-1.008,-0.003,-0.244,-0.244,0.244,-88.929,2.269,-149.832
2025-11-14 23:49:48.575,-0.005,-1.009,-0.003,-0.244,-0.244,0.305,-88.929,2.269,-149.826
2025-11-14 23:49:48.575,-0.006,-1.008,-0.003,-0.244,-0.183,0.244,-88.929,2.269,-149.826
2025-11-14 23:49:48.575,-0.005,-1.008,-0.003,-0.244,-0.183,0.305,-88.929,2.269,-149.826
2025-11-14 23:49:48.575,-0.005,-1.007,-0.003,-0.244,-0.183,0.305,-88.929,2.269,-149.821
2025-11-14 23:49:48.575,-0.005,-1.009,-0.003,-0.244,-0.244,0.305,-88.923,2.269,-149.821
2025-11-14 23:49:48.575,-0.005,-1.008,-0.003,-0.305,-0.183,0.305,-88.929,2.269,-149.821
2025-11-14 23:49:48.601,-0.005,-1.009,-0.004,-0.305,-0.244,0.305,-88.929,2.269,-149.815
2025-11-14 23:49:48.601,-0.005,-1.007,-0.003,-0.366,-0.183,0.244,-88.929,2.263,-149.815
2025-11-14 23:49:48.601,-0.004,-1.008,-0.003,-0.305,-0.183,0.244,-88.929,2.263,-149.81
2025-11-14 23:49:48.602,-0.005,-1.009,-0.004,-0.366,-0.183,0.244,-88.929,2.263,-149.81
2025-11-14 23:49:48.602,-0.006,-1.009,-0.003,-0.305,-0.183,0.244,-88.929,2.263,-149.81
2025-11-14 23:49:48.602,-0.006,-1.007,-0.003,-0.244,-0.183,0.305,-88.929,2.263,-149.804
2025-11-14 23:49:48.602,-0.006,-1.007,-0.003,-0.244,-0.244,0.305,-88.929,2.263,-149.804
2025-11-14 23:49:48.602,-0.005,-1.008,-0.003,-0.244,-0.244,0.244,-88.929,2.263,-149.799
2025-11-14 23:49:48.708,-0.005,-1.008,-0.004,-0.244,-0.183,0.305,-88.929,2.263,-149.799
2025-11-14 23:49:48.708,-0.006,-1.008,-0.003,-0.244,-0.183,0.366,-88.929,2.263,-149.799
2025-11-14 23:49:48.708,-0.006,-1.007,-0.002,-0.244,-0.122,0.366,-88.929,2.263,-149.799
2025-11-14 23:49:48.708,-0.006,-1.007,-0.003,-0.244,-0.122,0.305,-88.929,2.263,-149.793
2025-11-14 23:49:48.708,-0.006,-1.007,-0.004,-0.305,-0.183,0.305,-88.929,2.263,-149.793
2025-11-14 23:49:48.708,-0.005,-1.008,-0.003,-0.244,-0.244,0.305,-88.929,2.263,-149.793
2025-11-14 23:49:48.708,-0.005,-1.008,-0.003,-0.305,-0.183,0.244,-88.929,2.263,-149.788
2025-11-14 23:49:48.708,-0.005,-1.009,-0.003,-0.305,-0.183,0.366,-88.929,2.263,-149.788
2025-11-14 23:49:48.716,-0.006,-1.008,-0.003,-0.305,-0.305,0.305,-88.929,2.263,-149.782
2025-11-14 23:49:48.716,-0.006,-1.008,-0.003,-0.244,-0.244,0.244,-88.929,2.263,-149.782
2025-11-14 23:49:48.716,-0.006,-1.008,-0.004,-0.244,-0.183,0.244,-88.929,2.263,-149.782
2025-11-14 23:49:48.716,-0.005,-1.008,-0.004,-0.366,-0.244,0.305,-88.929,2.263,-149.777
2025-11-14 23:49:48.818,-0.004,-1.006,-0.004,-0.305,-0.183,0.366,-88.929,2.263,-149.777
2025-11-14 23:49:48.818,-0.005,-1.008,-0.003,-0.244,-0.183,0.305,-88.929,2.263,-149.771
2025-11-14 23:49:48.818,-0.005,-1.008,-0.004,-0.244,-0.183,0.305,-88.929,2.263,-149.771
2025-11-14 23:49:48.818,-0.005,-1.008,-0.004,-0.305,-0.244,0.244,-88.929,2.263,-149.771
2025-11-14 23:49:48.864,-0.006,-1.007,-0.004,-0.305,-0.183,0.305,-88.929,2.263,-149.766
2025-11-14 23:49:48.864,-0.005,-1.008,-0.003,-0.305,-0.244,0.305,-88.929,2.263,-149.766
2025-11-14 23:49:48.865,-0.005,-1.008,-0.004,-0.305,-0.183,0.305,-88.929,2.263,-149.766
2025-11-14 23:49:48.865,-0.005,-1.008,-0.004,-0.305,-0.183,0.305,-88.929,2.263,-149.76
2025-11-14 23:49:48.873,-0.005,-1.007,-0.004,-0.305,-0.183,0.244,-88.929,2.263,-149.76
2025-11-14 23:49:48.874,-0.005,-1.008,-0.004,-0.305,-0.183,0.305,-88.929,2.263,-149.76
2025-11-14 23:49:48.874,-0.006,-1.009,-0.004,-0.244,-0.122,0.305,-88.929,2.263,-149.755
2025-11-14 23:49:48.874,-0.005,-1.007,-0.003,-0.244,-0.122,0.305,-88.929,2.263,-149.755
2025-11-14 23:49:48.982,-0.005,-1.007,-0.004,-0.305,-0.244,0.244,-88.929,2.263,-149.755
2025-11-14 23:49:48.982,-0.005,-1.008,-0.003,-0.244,-0.122,0.305,-88.929,2.263,-149.749
2025-11-14 23:49:48.982,-0.005,-1.008,-0.004,-0.244,-0.244,0.244,-88.929,2.263,-149.749
2025-11-14 23:49:48.982,-0.006,-1.007,-0.003,-0.305,-0.183,0.305,-88.929,2.263,-149.749
2025-11-14 23:49:48.985,-0.006,-1.008,-0.003,-0.305,-0.244,0.366,-88.929,2.263,-149.744
2025-11-14 23:49:48.985,-0.006,-1.007,-0.004,-0.244,-0.183,0.305,-88.929,2.263,-149.744
2025-11-14 23:49:48.985,-0.005,-1.007,-0.003,-0.244,-0.183,0.244,-88.929,2.263,-149.738
2025-11-14 23:49:48.985,-0.004,-1.007,-0.004,-0.305,-0.183,0.305,-88.929,2.263,-149.738
2025-11-14 23:49:48.987,-0.004,-1.007,-0.002,-0.244,-0.183,0.305,-88.929,2.263,-149.738
2025-11-14 23:49:48.987,-0.005,-1.007,-0.003,-0.305,-0.183,0.305,-88.929,2.263,-149.733
2025-11-14 23:49:48.987,-0.006,-1.008,-0.003,-0.244,-0.183,0.305,-88.929,2.263,-149.733
2025-11-14 23:49:48.987,-0.006,-1.007,-0.003,-0.305,-0.183,0.305,-88.929,2.263,-149.733
2025-11-14 23:49:49.094,-0.005,-1.006,-0.002,-0.244,-0.183,0.244,-88.929,2.263,-149.727
2025-11-14 23:49:49.094,-0.005,-1.006,-0.004,-0.305,-0.183,0.305,-88.929,2.263,-149.727
2025-11-14 23:49:49.094,-0.006,-1.008,-0.004,-0.244,-0.183,0.305,-88.929,2.263,-149.727
2025-11-14 23:49:49.094,-0.005,-1.008,-0.003,-0.305,-0.244,0.305,-88.929,2.263,-149.722
2025-11-14 23:49:49.094,-0.004,-1.006,-0.002,-0.305,-0.244,0.305,-88.929,2.263,-149.722
2025-11-14 23:49:49.094,-0.006,-1.006,-0.002,-0.305,-0.183,0.305,-88.929,2.263,-149.722
2025-11-14 23:49:49.094,-0.005,-1.005,-0.004,-0.183,-0.183,0.305,-88.929,2.263,-149.716
2025-11-14 23:49:49.094,-0.005,-1.006,-0.004,-0.305,-0.183,0.244,-88.929,2.263,-149.716
2025-11-14 23:49:49.094,-0.005,-1.005,-0.003,-0.305,-0.122,0.244,-88.929,2.258,-149.716
2025-11-14 23:49:49.094,-0.006,-1.006,-0.004,-0.305,-0.183,0.244,-88.929,2.258,-149.711
2025-11-14 23:49:49.094,-0.005,-1.007,-0.002,-0.244,-0.244,0.305,-88.929,2.258,-149.711
2025-11-14 23:49:49.094,-0.005,-1.008,-0.004,-0.244,-0.244,0.305,-88.929,2.258,-149.705
2025-11-14 23:49:49.194,-0.005,-1.007,-0.003,-0.244,-0.183,0.305,-88.929,2.258,-149.705
2025-11-14 23:49:49.194,-0.006,-1.007,-0.003,-0.244,-0.244,0.366,-88.929,2.258,-149.705
2025-11-14 23:49:49.194,-0.006,-1.007,-0.004,-0.305,-0.183,0.305,-88.929,2.258,-149.7
2025-11-14 23:49:49.194,-0.005,-1.007,-0.004,-0.244,-0.244,0.305,-88.929,2.258,-149.7
2025-11-14 23:49:49.295,-0.005,-1.008,-0.003,-0.244,-0.244,0.305,-88.929,2.258,-149.694
2025-11-14 23:49:49.295,-0.006,-1.008,-0.003,-0.305,-0.183,0.366,-88.929,2.258,-149.694
2025-11-14 23:49:49.295,-0.005,-1.008,-0.003,-0.244,-0.183,0.305,-88.929,2.263,-149.694
2025-11-14 23:49:49.295,-0.006,-1.007,-0.004,-0.183,-0.244,0.305,-88.923,2.263,-149.689
2025-11-14 23:49:49.296,-0.005,-1.007,-0.003,-0.244,-0.183,0.244,-88.923,2.258,-149.689
2025-11-14 23:49:49.296,-0.005,-1.008,-0.004,-0.305,-0.183,0.305,-88.923,2.258,-149.689
2025-11-14 23:49:49.296,-0.005,-1.007,-0.004,-0.305,-0.122,0.305,-88.923,2.258,-149.683
2025-11-14 23:49:49.296,-0.005,-1.007,-0.004,-0.305,-0.183,0.305,-88.923,2.258,-149.683
2025-11-14 23:49:49.375,-0.005,-1.007,-0.003,-0.244,-0.244,0.366,-88.923,2.263,-149.683
2025-11-14 23:49:49.375,-0.006,-1.007,-0.004,-0.305,-0.183,0.305,-88.923,2.263,-149.678
2025-11-14 23:49:49.375,-0.005,-1.008,-0.003,-0.244,-0.183,0.305,-88.923,2.263,-149.678
2025-11-14 23:49:49.375,-0.005,-1.008,-0.004,-0.305,-0.183,0.305,-88.923,2.263,-149.678
2025-11-14 23:49:49.377,-0.006,-1.008,-0.003,-0.305,-0.122,0.244,-88.929,2.263,-149.672
2025-11-14 23:49:49.377,-0.006,-1.01,-0.003,-0.244,-0.183,0.244,-88.929,2.258,-149.672
2025-11-14 23:49:49.377,-0.005,-1.007,-0.003,-0.244,-0.244,0.366,-88.923,2.258,-149.672
2025-11-14 23:49:49.377,-0.005,-1.007,-0.003,-0.244,-0.183,0.305,-88.923,2.263,-149.667
2025-11-14 23:49:49.380,-0.004,-1.008,-0.004,-0.305,-0.183,0.305,-88.923,2.263,-149.667
2025-11-14 23:49:49.380,-0.005,-1.008,-0.003,-0.244,-0.122,0.366,-88.923,2.263,-149.667
2025-11-14 23:49:49.380,-0.006,-1.008,-0.004,-0.305,-0.244,0.305,-88.923,2.263,-149.661
2025-11-14 23:49:49.380,-0.005,-1.007,-0.004,-0.305,-0.122,0.305,-88.923,2.263,-149.661
2025-11-14 23:49:49.383,-0.006,-1.007,-0.004,-0.244,-0.183,0.305,-88.923,2.263,-149.661
2025-11-14 23:49:49.383,-0.005,-1.007,-0.004,-0.244,-0.244,0.305,-88.923,2.263,-149.656
2025-11-14 23:49:49.383,-0.006,-1.008,-0.003,-0.305,-0.183,0.305,-88.923,2.263,-149.656
2025-11-14 23:49:49.383,-0.005,-1.006,-0.003,-0.305,-0.244,0.305,-88.923,2.263,-149.65
2025-11-14 23:49:49.491,-0.005,-1.005,-0.003,-0.305,-0.244,0.305,-88.923,2.263,-149.65
2025-11-14 23:49:49.491,-0.005,-1.005,-0.004,-0.244,-0.183,0.305,-88.923,2.263,-149.65
2025-11-14 23:49:49.491,-0.006,-1.006,-0.004,-0.244,-0.244,0.366,-88.923,2.263,-149.645
2025-11-14 23:49:49.491,-0.005,-1.006,-0.003,-0.305,-0.244,0.305,-88.923,2.263,-149.645
2025-11-14 23:49:49.491,-0.006,-1.006,-0.005,-0.305,-0.244,0.305,-88.923,2.263,-149.639
2025-11-14 23:49:49.491,-0.005,-1.007,-0.004,-0.244,-0.244,0.366,-88.923,2.263,-149.639
2025-11-14 23:49:49.491,-0.005,-1.007,-0.004,-0.305,-0.183,0.366,-88.923,2.263,-149.639
2025-11-14 23:49:49.491,-0.005,-1.008,-0.003,-0.305,-0.244,0.305,-88.923,2.263,-149.634
2025-11-14 23:49:49.497,-0.006,-1.007,-0.004,-0.305,-0.183,0.305,-88.929,2.263,-149.634
2025-11-14 23:49:49.497,-0.005,-1.005,-0.004,-0.305,-0.183,0.244,-88.929,2.263,-149.628
2025-11-14 23:49:49.497,-0.005,-1.006,-0.003,-0.366,-0.183,0.244,-88.929,2.263,-149.628
2025-11-14 23:49:49.497,-0.005,-1.008,-0.003,-0.305,-0.122,0.305,-88.929,2.263,-149.628
2025-11-14 23:49:49.599,-0.005,-1.007,-0.003,-0.305,-0.183,0.244,-88.929,2.263,-149.623
2025-11-14 23:49:49.599,-0.005,-1.007,-0.004,-0.244,-0.244,0.305,-88.929,2.263,-149.623
2025-11-14 23:49:49.599,-0.005,-1.007,-0.003,-0.305,-0.183,0.366,-88.929,2.263,-149.623
2025-11-14 23:49:49.599,-0.006,-1.007,-0.003,-0.244,-0.122,0.305,-88.929,2.263,-149.617
2025-11-14 23:49:49.599,-0.006,-1.007,-0.004,-0.244,-0.244,0.244,-88.929,2.263,-149.617
2025-11-14 23:49:49.599,-0.006,-1.007,-0.004,-0.305,-0.183,0.305,-88.929,2.263,-149.617
2025-11-14 23:49:49.599,-0.006,-1.007,-0.003,-0.244,-0.244,0.244,-88.929,2.263,-149.612
2025-11-14 23:49:49.599,-0.006,-1.008,-0.003,-0.244,-0.244,0.305,-88.929,2.263,-149.612
2025-11-14 23:49:49.616,-0.006,-1.007,-0.004,-0.244,-0.183,0.244,-88.929,2.263,-149.606
2025-11-14 23:49:49.616,-0.006,-1.007,-0.003,-0.244,-0.122,0.366,-88.929,2.263,-149.606
2025-11-14 23:49:49.616,-0.006,-1.007,-0.003,-0.244,-0.183,0.366,-88.929,2.263,-149.606
2025-11-14 23:49:49.616,-0.005,-1.008,-0.003,-0.305,-0.244,0.366,-88.929,2.263,-149.606
2025-11-14 23:49:49.718,-0.006,-1.006,-0.003,-0.305,-0.183,0.305,-88.929,2.263,-149.601
2025-11-14 23:49:49.719,-0.005,-1.006,-0.003,-0.305,-0.183,0.305,-88.929,2.263,-149.601
2025-11-14 23:49:49.719,-0.005,-1.006,-0.004,-0.244,-0.183,0.305,-88.929,2.263,-149.595
2025-11-14 23:49:49.719,-0.005,-1.006,-0.003,-0.244,-0.183,0.244,-88.929,2.263,-149.595
2025-11-14 23:49:49.719,-0.005,-1.006,-0.004,-0.244,-0.183,0.305,-88.929,2.263,-149.595
2025-11-14 23:49:49.719,-0.006,-1.007,-0.003,-0.183,-0.183,0.244,-88.923,2.263,-149.59
2025-11-14 23:49:49.719,-0.005,-1.008,-0.004,-0.244,-0.244,0.305,-88.923,2.263,-149.59
2025-11-14 23:49:49.719,-0.006,-1.007,-0.004,-0.305,-0.244,0.305,-88.923,2.263,-149.59
2025-11-14 23:49:49.738,-0.005,-1.007,-0.003,-0.305,-0.183,0.305,-88.923,2.263,-149.584
2025-11-14 23:49:49.738,-0.005,-1.007,-0.004,-0.305,-0.183,0.366,-88.923,2.263,-149.584
2025-11-14 23:49:49.738,-0.005,-1.006,-0.004,-0.305,-0.183,0.305,-88.923,2.263,-149.584
2025-11-14 23:49:49.738,-0.006,-1.006,-0.003,-0.305,-0.244,0.305,-88.923,2.263,-149.579
2025-11-14 23:49:49.840,-0.005,-1.005,-0.003,-0.244,-0.122,0.305,-88.923,2.263,-149.579
2025-11-14 23:49:49.840,-0.005,-1.006,-0.004,-0.244,-0.244,0.305,-88.923,2.263,-149.573
2025-11-14 23:49:49.840,-0.005,-1.008,-0.004,-0.305,-0.244,0.244,-88.923,2.263,-149.573
2025-11-14 23:49:49.840,-0.005,-1.008,-0.004,-0.244,-0.244,0.305,-88.923,2.263,-149.573
2025-11-14 23:49:49.840,-0.006,-1.007,-0.004,-0.305,-0.244,0.244,-88.923,2.263,-149.568
2025-11-14 23:49:49.840,-0.005,-1.008,-0.004,-0.244,-0.244,0.305,-88.923,2.263,-149.568
2025-11-14 23:49:49.840,-0.005,-1.007,-0.003,-0.305,-0.122,0.244,-88.923,2.263,-149.562
2025-11-14 23:49:49.840,-0.006,-1.009,-0.003,-0.305,-0.183,0.244,-88.923,2.263,-149.562
2025-11-14 23:49:49.856,-0.006,-1.008,-0.003,-0.305,-0.183,0.244,-88.923,2.258,-149.562
2025-11-14 23:49:49.856,-0.006,-1.007,-0.003,-0.305,-0.244,0.305,-88.929,2.258,-149.557
2025-11-14 23:49:49.856,-0.005,-1.008,-0.003,-0.305,-0.244,0.305,-88.929,2.258,-149.557
2025-11-14 23:49:49.856,-0.005,-1.008,-0.003,-0.305,-0.183,0.244,-88.929,2.258,-149.551
2025-11-14 23:49:49.962,-0.005,-1.006,-0.004,-0.305,-0.244,0.305,-88.929,2.258,-149.551
2025-11-14 23:49:49.962,-0.005,-1.006,-0.004,-0.244,-0.244,0.305,-88.929,2.258,-149.551
2025-11-14 23:49:49.962,-0.005,-1.008,-0.003,-0.305,-0.122,0.305,-88.929,2.258,-149.546
2025-11-14 23:49:49.962,-0.005,-1.007,-0.004,-0.244,-0.244,0.366,-88.929,2.258,-149.546
2025-11-14 23:49:49.962,-0.004,-1.008,-0.003,-0.305,-0.244,0.305,-88.929,2.258,-149.54
2025-11-14 23:49:49.962,-0.005,-1.007,-0.003,-0.305,-0.183,0.366,-88.929,2.263,-149.54
2025-11-14 23:49:49.962,-0.005,-1.007,-0.004,-0.244,-0.183,0.366,-88.929,2.263,-149.54
2025-11-14 23:49:49.962,-0.005,-1.008,-0.003,-0.305,-0.183,0.305,-88.929,2.263,-149.535
2025-11-14 23:49:50.107,-0.004,-1.007,-0.003,-0.244,-0.244,0.305,-88.929,2.263,-149.535
2025-11-14 23:49:50.107,-0.006,-1.007,-0.003,-0.305,-0.122,0.244,-88.929,2.263,-149.535
2025-11-14 23:49:50.107,-0.006,-1.006,-0.003,-0.305,-0.183,0.366,-88.929,2.263,-149.529
2025-11-14 23:49:50.107,-0.005,-1.005,-0.003,-0.305,-0.244,0.366,-88.929,2.263,-149.529
2025-11-14 23:49:50.107,-0.005,-1.005,-0.004,-0.305,-0.244,0.366,-88.929,2.263,-149.529
2025-11-14 23:49:50.107,-0.005,-1.006,-0.004,-0.305,-0.183,0.305,-88.929,2.263,-149.524
2025-11-14 23:49:50.107,-0.005,-1.005,-0.003,-0.305,-0.122,0.305,-88.929,2.263,-149.524
2025-11-14 23:49:50.107,-0.005,-1.006,-0.004,-0.305,-0.122,0.305,-88.929,2.263,-149.524
2025-11-14 23:49:50.107,-0.005,-1.008,-0.003,-0.244,-0.183,0.366,-88.929,2.263,-149.518
2025-11-14 23:49:50.107,-0.005,-1.008,-0.003,-0.305,-0.183,0.305,-88.929,2.263,-149.518
2025-11-14 23:49:50.107,-0.006,-1.007,-0.002,-0.244,-0.244,0.305,-88.929,2.263,-149.518
2025-11-14 23:49:50.107,-0.005,-1.006,-0.003,-0.305,-0.183,0.305,-88.929,2.263,-149.513
2025-11-14 23:49:50.107,-0.005,-1.006,-0.004,-0.305,-0.183,0.366,-88.929,2.263,-149.513
2025-11-14 23:49:50.107,-0.005,-1.006,-0.004,-0.244,-0.244,0.366,-88.929,2.263,-149.513
2025-11-14 23:49:50.108,-0.007,-1.006,-0.003,-0.244,-0.183,0.305,-88.929,2.263,-149.507
2025-11-14 23:49:50.108,-0.006,-1.004,-0.003,-0.305,-0.183,0.305,-88.929,2.263,-149.507
2025-11-14 23:49:50.163,-0.006,-1.006,-0.004,-0.244,-0.244,0.366,-88.929,2.263,-149.502
2025-11-14 23:49:50.163,-0.006,-1.005,-0.003,-0.305,-0.183,0.305,-88.929,2.263,-149.502
2025-11-14 23:49:50.163,-0.006,-1.006,-0.004,-0.244,-0.244,0.244,-88.929,2.263,-149.502
2025-11-14 23:49:50.164,-0.006,-1.006,-0.004,-0.305,-0.183,0.244,-88.929,2.263,-149.496
2025-11-14 23:49:50.266,-0.006,-1.004,-0.003,-0.305,-0.183,0.244,-88.929,2.263,-149.496
2025-11-14 23:49:50.266,-0.005,-1.006,-0.002,-0.244,-0.183,0.244,-88.929,2.263,-149.496
2025-11-14 23:49:50.266,-0.005,-1.007,-0.003,-0.305,-0.183,0.244,-88.929,2.263,-149.491
2025-11-14 23:49:50.266,-0.005,-1.008,-0.004,-0.244,-0.183,0.244,-88.929,2.263,-149.491
2025-11-14 23:49:50.266,-0.007,-1.008,-0.004,-0.305,-0.244,0.244,-88.929,2.263,-149.491
2025-11-14 23:49:50.266,-0.005,-1.007,-0.004,-0.244,-0.244,0.305,-88.929,2.263,-149.485
2025-11-14 23:49:50.266,-0.006,-1.007,-0.003,-0.244,-0.244,0.244,-88.929,2.263,-149.485
2025-11-14 23:49:50.266,-0.005,-1.007,-0.004,-0.244,-0.183,0.305,-88.929,2.263,-149.48
2025-11-14 23:49:50.266,-0.006,-1.007,-0.004,-0.305,-0.183,0.305,-88.929,2.263,-149.48
2025-11-14 23:49:50.266,-0.005,-1.007,-0.004,-0.305,-0.183,0.244,-88.929,2.263,-149.48
2025-11-14 23:49:50.266,-0.006,-1.008,-0.004,-0.244,-0.244,0.244,-88.929,2.258,-149.474
2025-11-14 23:49:50.266,-0.005,-1.009,-0.003,-0.244,-0.183,0.244,-88.929,2.258,-149.474
2025-11-14 23:49:50.307,-0.005,-1.009,-0.003,-0.244,-0.183,0.244,-88.929,2.258,-149.469
2025-11-14 23:49:50.307,-0.005,-1.008,-0.002,-0.244,-0.183,0.305,-88.929,2.258,-149.469
2025-11-14 23:49:50.307,-0.004,-1.008,-0.003,-0.244,-0.244,0.244,-88.929,2.258,-149.469
2025-11-14 23:49:50.307,-0.005,-1.006,-0.003,-0.305,-0.122,0.305,-88.929,2.258,-149.464
2025-11-14 23:49:50.413,-0.006,-1.005,-0.004,-0.305,-0.183,0.366,-88.929,2.258,-149.464
2025-11-14 23:49:50.413,-0.006,-1.007,-0.003,-0.244,-0.183,0.366,-88.929,2.258,-149.464
2025-11-14 23:49:50.413,-0.006,-1.008,-0.004,-0.244,-0.122,0.305,-88.929,2.258,-149.464
2025-11-14 23:49:50.413,-0.005,-1.009,-0.003,-0.305,-0.183,0.305,-88.929,2.258,-149.458
2025-11-14 23:49:50.413,-0.006,-1.006,-0.003,-0.305,-0.183,0.244,-88.929,2.258,-149.458
2025-11-14 23:49:50.413,-0.005,-1.007,-0.003,-0.305,-0.244,0.305,-88.929,2.258,-149.453
2025-11-14 23:49:50.413,-0.005,-1.008,-0.004,-0.305,-0.183,0.305,-88.929,2.258,-149.453
2025-11-14 23:49:50.413,-0.004,-1.007,-0.004,-0.244,-0.183,0.244,-88.929,2.258,-149.453
2025-11-14 23:49:50.426,-0.005,-1.009,-0.004,-0.244,-0.244,0.305,-88.929,2.258,-149.447
2025-11-14 23:49:50.426,-0.005,-1.008,-0.003,-0.244,-0.244,0.305,-88.929,2.258,-149.447
2025-11-14 23:49:50.426,-0.005,-1.006,-0.003,-0.244,-0.244,0.305,-88.929,2.258,-149.442
2025-11-14 23:49:50.426,-0.005,-1.006,-0.004,-0.305,-0.183,0.244,-88.929,2.258,-149.442
2025-11-14 23:49:50.529,-0.005,-1.005,-0.004,-0.305,-0.183,0.305,-88.929,2.258,-149.442
2025-11-14 23:49:50.529,-0.005,-1.006,-0.003,-0.305,-0.183,0.244,-88.929,2.258,-149.436
2025-11-14 23:49:50.529,-0.004,-1.007,-0.003,-0.305,-0.244,0.305,-88.929,2.258,-149.436
2025-11-14 23:49:50.529,-0.003,-1.008,-0.004,-0.305,-0.183,0.305,-88.929,2.258,-149.436
2025-11-14 23:49:50.529,-0.004,-1.006,-0.002,-0.244,-0.183,0.305,-88.929,2.258,-149.431
2025-11-14 23:49:50.529,-0.006,-1.007,-0.003,-0.244,-0.244,0.305,-88.929,2.258,-149.431
2025-11-14 23:49:50.529,-0.005,-1.007,-0.003,-0.244,-0.244,0.305,-88.929,2.258,-149.425
2025-11-14 23:49:50.529,-0.005,-1.007,-0.004,-0.305,-0.183,0.244,-88.929,2.258,-149.425
2025-11-14 23:49:50.576,-0.005,-1.007,-0.003,-0.305,-0.244,0.244,-88.929,2.258,-149.425
2025-11-14 23:49:50.576,-0.006,-1.008,-0.003,-0.305,-0.244,0.366,-88.929,2.258,-149.42
2025-11-14 23:49:50.576,-0.005,-1.007,-0.004,-0.244,-0.244,0.366,-88.929,2.258,-149.42
2025-11-14 23:49:50.576,-0.005,-1.008,-0.003,-0.244,-0.183,0.366,-88.929,2.258,-149.414
2025-11-14 23:49:50.683,-0.004,-1.007,-0.004,-0.244,-0.183,0.305,-88.929,2.258,-149.414
2025-11-14 23:49:50.683,-0.006,-1.007,-0.003,-0.244,-0.244,0.244,-88.929,2.258,-149.414
2025-11-14 23:49:50.683,-0.004,-1.007,-0.003,-0.305,-0.183,0.305,-88.929,2.258,-149.409
2025-11-14 23:49:50.683,-0.005,-1.007,-0.004,-0.305,-0.183,0.366,-88.929,2.258,-149.409
2025-11-14 23:49:50.683,-0.006,-1.008,-0.004,-0.244,-0.244,0.305,-88.929,2.258,-149.409
2025-11-14 23:49:50.683,-0.006,-1.009,-0.003,-0.305,-0.183,0.305,-88.929,2.258,-149.403
2025-11-14 23:49:50.683,-0.005,-1.008,-0.003,-0.244,-0.183,0.366,-88.929,2.258,-149.403
2025-11-14 23:49:50.683,-0.005,-1.007,-0.004,-0.244,-0.183,0.305,-88.929,2.258,-149.398
2025-11-14 23:49:50.683,-0.005,-1.008,-0.004,-0.305,-0.183,0.366,-88.929,2.258,-149.398
2025-11-14 23:49:50.683,-0.005,-1.008,-0.003,-0.244,-0.183,0.366,-88.929,2.258,-149.398
2025-11-14 23:49:50.683,-0.005,-1.009,-0.004,-0.244,-0.244,0.305,-88.923,2.258,-149.392
2025-11-14 23:49:50.683,-0.005,-1.008,-0.004,-0.244,-0.244,0.366,-88.923,2.258,-149.392
2025-11-14 23:49:50.701,-0.006,-1.007,-0.003,-0.244,-0.305,0.305,-88.923,2.263,-149.387
2025-11-14 23:49:50.701,-0.005,-1.007,-0.004,-0.305,-0.183,0.305,-88.923,2.263,-149.387
2025-11-14 23:49:50.701,-0.005,-1.007,-0.003,-0.305,-0.183,0.366,-88.923,2.263,-149.387
2025-11-14 23:49:50.701,-0.005,-1.006,-0.004,-0.244,-0.244,0.305,-88.923,2.263,-149.381
2025-11-14 23:49:50.802,-0.005,-1.006,-0.003,-0.244,-0.183,0.305,-88.923,2.263,-149.381
2025-11-14 23:49:50.802,-0.005,-1.006,-0.003,-0.305,-0.183,0.244,-88.923,2.263,-149.381
2025-11-14 23:49:50.802,-0.005,-1.006,-0.003,-0.305,-0.244,0.244,-88.923,2.258,-149.376
2025-11-14 23:49:50.802,-0.005,-1.007,-0.003,-0.244,-0.122,0.305,-88.923,2.258,-149.376
2025-11-14 23:49:50.802,-0.006,-1.008,-0.004,-0.305,-0.183,0.366,-88.923,2.258,-149.376
2025-11-14 23:49:50.802,-0.006,-1.009,-0.003,-0.244,-0.244,0.305,-88.923,2.263,-149.37
2025-11-14 23:49:50.802,-0.006,-1.006,-0.004,-0.244,-0.122,0.244,-88.923,2.258,-149.37
2025-11-14 23:49:50.802,-0.005,-1.008,-0.003,-0.244,-0.122,0.366,-88.923,2.258,-149.37
2025-11-14 23:49:50.817,-0.005,-1.007,-0.003,-0.305,-0.244,0.305,-88.923,2.263,-149.365
2025-11-14 23:49:50.818,-0.005,-1.008,-0.003,-0.244,-0.183,0.366,-88.923,2.263,-149.365
2025-11-14 23:49:50.818,-0.005,-1.006,-0.003,-0.244,-0.183,0.305,-88.923,2.263,-149.365
2025-11-14 23:49:50.818,-0.006,-1.006,-0.004,-0.305,-0.122,0.244,-88.923,2.263,-149.359
2025-11-14 23:49:50.919,-0.006,-1.007,-0.004,-0.244,-0.122,0.244,-88.923,2.258,-149.359
2025-11-14 23:49:50.919,-0.005,-1.008,-0.003,-0.244,-0.183,0.244,-88.923,2.258,-149.359
2025-11-14 23:49:50.919,-0.004,-1.007,-0.003,-0.183,-0.244,0.305,-88.923,2.258,-149.354
2025-11-14 23:49:50.919,-0.005,-1.006,-0.003,-0.305,-0.244,0.305,-88.923,2.258,-149.354
2025-11-14 23:49:50.919,-0.006,-1.006,-0.004,-0.305,-0.183,0.305,-88.923,2.258,-149.348
2025-11-14 23:49:50.919,-0.005,-1.008,-0.003,-0.244,-0.183,0.305,-88.923,2.258,-149.348
2025-11-14 23:49:50.919,-0.005,-1.006,-0.004,-0.244,-0.183,0.305,-88.923,2.258,-149.348
2025-11-14 23:49:50.919,-0.005,-1.007,-0.003,-0.305,-0.183,0.366,-88.923,2.258,-149.343
2025-11-14 23:49:50.936,-0.005,-1.007,-0.003,-0.305,-0.183,0.244,-88.923,2.258,-149.343
2025-11-14 23:49:50.936,-0.005,-1.008,-0.003,-0.305,-0.244,0.305,-88.923,2.258,-149.343
2025-11-14 23:49:50.936,-0.005,-1.008,-0.003,-0.244,-0.244,0.305,-88.923,2.258,-149.337
2025-11-14 23:49:50.936,-0.006,-1.007,-0.002,-0.244,-0.183,0.244,-88.923,2.258,-149.337
2025-11-14 23:49:51.038,-0.005,-1.007,-0.003,-0.244,-0.183,0.305,-88.923,2.258,-149.337
2025-11-14 23:49:51.038,-0.006,-1.008,-0.003,-0.305,-0.244,0.366,-88.923,2.258,-149.332
2025-11-14 23:49:51.038,-0.006,-1.008,-0.004,-0.244,-0.244,0.305,-88.923,2.258,-149.332
2025-11-14 23:49:51.038,-0.005,-1.008,-0.003,-0.305,-0.183,0.305,-88.923,2.258,-149.326
2025-11-14 23:49:51.087,-0.005,-1.006,-0.003,-0.244,-0.244,0.305,-88.923,2.258,-149.326
2025-11-14 23:49:51.087,-0.005,-1.004,-0.003,-0.244,-0.183,0.305,-88.923,2.258,-149.326
2025-11-14 23:49:51.087,-0.005,-1.007,-0.004,-0.305,-0.244,0.305,-88.923,2.258,-149.321
2025-11-14 23:49:51.087,-0.005,-1.008,-0.003,-0.244,-0.244,0.366,-88.923,2.258,-149.321
2025-11-14 23:49:51.148,-0.005,-1.007,-0.003,-0.305,-0.183,0.305,-88.923,2.258,-149.315
2025-11-14 23:49:51.148,-0.005,-1.008,-0.003,-0.305,-0.183,0.244,-88.923,2.258,-149.315
2025-11-14 23:49:51.148,-0.005,-1.007,-0.003,-0.305,-0.183,0.305,-88.923,2.258,-149.315
2025-11-14 23:49:51.148,-0.005,-1.007,-0.004,-0.305,-0.183,0.305,-88.923,2.258,-149.31
2025-11-14 23:49:51.249,-0.006,-1.007,-0.003,-0.244,-0.183,0.183,-88.923,2.258,-149.31
2025-11-14 23:49:51.249,-0.005,-1.006,-0.004,-0.305,-0.244,0.183,-88.923,2.258,-149.31
2025-11-14 23:49:51.249,-0.005,-1.007,-0.004,-0.244,-0.122,0.244,-88.923,2.258,-149.304
2025-11-14 23:49:51.249,-0.005,-1.007,-0.004,-0.305,-0.183,0.305,-88.923,2.258,-149.304
2025-11-14 23:49:51.249,-0.006,-1.008,-0.003,-0.305,-0.183,0.305,-88.923,2.258,-149.304
2025-11-14 23:49:51.249,-0.005,-1.008,-0.003,-0.244,-0.244,0.305,-88.923,2.258,-149.299
2025-11-14 23:49:51.249,-0.005,-1.008,-0.003,-0.305,-0.183,0.305,-88.923,2.258,-149.299
2025-11-14 23:49:51.249,-0.006,-1.008,-0.003,-0.244,-0.183,0.305,-88.923,2.258,-149.299
2025-11-14 23:49:51.249,-0.006,-1.006,-0.003,-0.244,-0.244,0.244,-88.923,2.258,-149.293
2025-11-14 23:49:51.249,-0.005,-1.006,-0.003,-0.305,-0.244,0.366,-88.923,2.258,-149.293
2025-11-14 23:49:51.249,-0.006,-1.006,-0.003,-0.305,-0.183,0.305,-88.923,2.258,-149.288
2025-11-14 23:49:51.249,-0.006,-1.006,-0.003,-0.305,-0.183,0.305,-88.923,2.258,-149.288
2025-11-14 23:49:51.249,-0.005,-1.008,-0.004,-0.244,-0.122,0.305,-88.923,2.258,-149.288
2025-11-14 23:49:51.249,-0.005,-1.008,-0.003,-0.305,-0.183,0.366,-88.923,2.258,-149.282
2025-11-14 23:49:51.249,-0.004,-1.007,-0.003,-0.305,-0.183,0.366,-88.923,2.258,-149.282
2025-11-14 23:49:51.249,-0.005,-1.007,-0.003,-0.244,-0.183,0.305,-88.923,2.258,-149.282
2025-11-14 23:49:51.272,-0.005,-1.007,-0.004,-0.305,-0.183,0.244,-88.923,2.258,-149.277
2025-11-14 23:49:51.272,-0.005,-1.006,-0.004,-0.244,-0.183,0.305,-88.923,2.258,-149.277
2025-11-14 23:49:51.272,-0.005,-1.006,-0.004,-0.305,-0.244,0.305,-88.923,2.258,-149.277
2025-11-14 23:49:51.272,-0.005,-1.008,-0.003,-0.305,-0.183,0.305,-88.923,2.258,-149.271
2025-11-14 23:49:51.373,-0.006,-1.008,-0.003,-0.305,-0.122,0.366,-88.923,2.258,-149.271
2025-11-14 23:49:51.373,-0.005,-1.007,-0.003,-0.305,-0.244,0.366,-88.923,2.258,-149.271
2025-11-14 23:49:51.373,-0.006,-1.006,-0.003,-0.244,-0.244,0.244,-88.923,2.258,-149.266
2025-11-14 23:49:51.373,-0.005,-1.007,-0.003,-0.244,-0.244,0.305,-88.923,2.258,-149.266
2025-11-14 23:49:51.373,-0.005,-1.007,-0.003,-0.305,-0.244,0.244,-88.923,2.258,-149.26
2025-11-14 23:49:51.374,-0.005,-1.009,-0.002,-0.244,-0.183,0.305,-88.923,2.258,-149.26
2025-11-14 23:49:51.374,-0.005,-1.008,-0.003,-0.305,-0.183,0.305,-88.923,2.258,-149.26
2025-11-14 23:49:51.374,-0.006,-1.007,-0.003,-0.244,-0.183,0.305,-88.923,2.258,-149.255
2025-11-14 23:49:51.386,-0.005,-1.007,-0.004,-0.305,-0.183,0.305,-88.923,2.258,-149.255
2025-11-14 23:49:51.386,-0.005,-1.007,-0.004,-0.305,-0.183,0.244,-88.923,2.258,-149.255
2025-11-14 23:49:51.386,-0.005,-1.007,-0.004,-0.244,-0.183,0.244,-88.923,2.258,-149.249
2025-11-14 23:49:51.386,-0.005,-1.008,-0.004,-0.305,-0.244,0.244,-88.923,2.258,-149.249
2025-11-14 23:49:51.488,-0.005,-1.007,-0.004,-0.244,-0.183,0.305,-88.923,2.258,-149.244
2025-11-14 23:49:51.488,-0.006,-1.007,-0.003,-0.305,-0.061,0.305,-88.923,2.258,-149.244
2025-11-14 23:49:51.488,-0.006,-1.007,-0.004,-0.305,-0.183,0.305,-88.923,2.258,-149.244
2025-11-14 23:49:51.488,-0.006,-1.008,-0.004,-0.305,-0.183,0.305,-88.923,2.258,-149.244
2025-11-14 23:49:51.511,-0.005,-1.008,-0.003,-0.305,-0.244,0.366,-88.923,2.258,-149.238
2025-11-14 23:49:51.511,-0.005,-1.007,-0.003,-0.244,-0.244,0.366,-88.923,2.258,-149.238
2025-11-14 23:49:51.511,-0.005,-1.007,-0.004,-0.244,-0.122,0.244,-88.923,2.258,-149.238
2025-11-14 23:49:51.511,-0.005,-1.008,-0.003,-0.244,-0.183,0.366,-88.923,2.258,-149.233
2025-11-14 23:49:51.511,-0.005,-1.007,-0.005,-0.244,-0.183,0.244,-88.923,2.258,-149.233
2025-11-14 23:49:51.511,-0.005,-1.008,-0.003,-0.305,-0.244,0.305,-88.923,2.258,-149.227
2025-11-14 23:49:51.511,-0.005,-1.008,-0.004,-0.305,-0.244,0.305,-88.923,2.258,-149.227
2025-11-14 23:49:51.511,-0.005,-1.008,-0.004,-0.305,-0.244,0.305,-88.923,2.258,-149.227
2025-11-14 23:49:51.612,-0.005,-1.008,-0.003,-0.305,-0.122,0.305,-88.923,2.258,-149.222
2025-11-14 23:49:51.612,-0.006,-1.008,-0.004,-0.244,-0.244,0.305,-88.923,2.258,-149.222
2025-11-14 23:49:51.612,-0.006,-1.009,-0.004,-0.305,-0.122,0.305,-88.923,2.258,-149.222
2025-11-14 23:49:51.612,-0.005,-1.008,-0.004,-0.305,-0.183,0.305,-88.923,2.258,-149.216
2025-11-14 23:49:51.612,-0.005,-1.008,-0.003,-0.305,-0.183,0.244,-88.929,2.258,-149.216
2025-11-14 23:49:51.612,-0.004,-1.007,-0.002,-0.305,-0.244,0.305,-88.929,2.258,-149.216
2025-11-14 23:49:51.612,-0.006,-1.008,-0.003,-0.305,-0.244,0.305,-88.929,2.258,-149.211
2025-11-14 23:49:51.612,-0.005,-1.008,-0.002,-0.305,-0.244,0.305,-88.929,2.258,-149.211
2025-11-14 23:49:51.794,-0.006,-1.007,-0.002,-0.244,-0.244,0.305,-88.929,2.258,-149.205
2025-11-14 23:49:51.794,-0.005,-1.007,-0.003,-0.305,-0.183,0.244,-88.929,2.258,-149.205
2025-11-14 23:49:51.794,-0.005,-1.007,-0.004,-0.244,-0.183,0.244,-88.929,2.258,-149.2
2025-11-14 23:49:51.794,-0.005,-1.007,-0.004,-0.244,-0.244,0.244,-88.929,2.258,-149.2
2025-11-14 23:49:51.794,-0.004,-1.008,-0.004,-0.244,-0.183,0.305,-88.923,2.258,-149.2
2025-11-14 23:49:51.794,-0.006,-1.008,-0.003,-0.305,-0.244,0.244,-88.929,2.252,-149.194
2025-11-14 23:49:51.794,-0.005,-1.007,-0.003,-0.305,-0.244,0.305,-88.929,2.252,-149.194
2025-11-14 23:49:51.794,-0.006,-1.007,-0.004,-0.305,-0.183,0.244,-88.929,2.252,-149.194
2025-11-14 23:49:51.794,-0.005,-1.008,-0.003,-0.305,-0.183,0.305,-88.929,2.252,-149.189
2025-11-14 23:49:51.794,-0.005,-1.008,-0.003,-0.305,-0.183,0.305,-88.929,2.252,-149.189
2025-11-14 23:49:51.794,-0.005,-1.008,-0.004,-0.305,-0.244,0.366,-88.929,2.252,-149.183
2025-11-14 23:49:51.794,-0.005,-1.008,-0.004,-0.305,-0.183,0.305,-88.929,2.258,-149.183
2025-11-14 23:49:51.794,-0.005,-1.008,-0.004,-0.305,-0.183,0.366,-88.929,2.258,-149.183
2025-11-14 23:49:51.794,-0.006,-1.009,-0.004,-0.244,-0.183,0.305,-88.929,2.258,-149.178
2025-11-14 23:49:51.794,-0.006,-1.008,-0.003,-0.305,-0.305,0.305,-88.929,2.258,-149.178
2025-11-14 23:49:51.794,-0.006,-1.006,-0.002,-0.305,-0.183,0.305,-88.929,2.258,-149.178
2025-11-14 23:49:51.794,-0.005,-1.005,-0.004,-0.305,-0.183,0.305,-88.929,2.258,-149.172
2025-11-14 23:49:51.794,-0.006,-1.006,-0.004,-0.305,-0.244,0.244,-88.929,2.258,-149.172
2025-11-14 23:49:51.794,-0.006,-1.007,-0.004,-0.305,-0.122,0.366,-88.929,2.258,-149.167
2025-11-14 23:49:51.794,-0.006,-1.005,-0.003,-0.305,-0.183,0.305,-88.929,2.258,-149.167
2025-11-14 23:49:51.839,-0.006,-1.005,-0.003,-0.305,-0.244,0.244,-88.929,2.258,-149.167
2025-11-14 23:49:51.839,-0.005,-1.007,-0.003,-0.244,-0.244,0.244,-88.929,2.258,-149.161
2025-11-14 23:49:51.839,-0.006,-1.008,-0.003,-0.305,-0.183,0.244,-88.929,2.252,-149.161
2025-11-14 23:49:51.839,-0.006,-1.008,-0.003,-0.244,-0.183,0.305,-88.929,2.252,-149.161
2025-11-14 23:49:51.940,-0.006,-1.008,-0.004,-0.305,-0.244,0.244,-88.929,2.252,-149.156
2025-11-14 23:49:51.940,-0.005,-1.007,-0.004,-0.305,-0.244,0.305,-88.929,2.252,-149.156
2025-11-14 23:49:51.940,-0.006,-1.007,-0.004,-0.244,-0.244,0.244,-88.929,2.252,-149.15
2025-11-14 23:49:51.940,-0.005,-1.008,-0.004,-0.305,-0.183,0.244,-88.929,2.252,-149.15
2025-11-14 23:49:51.940,-0.005,-1.008,-0.002,-0.244,-0.183,0.244,-88.929,2.252,-149.15
2025-11-14 23:49:51.940,-0.006,-1.008,-0.003,-0.244,-0.183,0.366,-88.929,2.252,-149.145
2025-11-14 23:49:51.940,-0.005,-1.007,-0.004,-0.244,-0.183,0.305,-88.929,2.252,-149.145
2025-11-14 23:49:51.940,-0.006,-1.007,-0.004,-0.305,-0.122,0.244,-88.929,2.252,-149.145
2025-11-14 23:49:51.961,-0.006,-1.008,-0.004,-0.305,-0.122,0.305,-88.929,2.252,-149.139
2025-11-14 23:49:51.961,-0.005,-1.009,-0.004,-0.244,-0.183,0.305,-88.929,2.252,-149.139
2025-11-14 23:49:51.961,-0.006,-1.008,-0.005,-0.244,-0.183,0.305,-88.929,2.252,-149.139
2025-11-14 23:49:51.961,-0.005,-1.008,-0.003,-0.244,-0.244,0.244,-88.929,2.252,-149.134
2025-11-14 23:49:52.071,-0.005,-1.006,-0.003,-0.305,-0.244,0.244,-88.929,2.252,-149.134
2025-11-14 23:49:52.071,-0.005,-1.008,-0.003,-0.305,-0.183,0.244,-88.929,2.252,-149.134
2025-11-14 23:49:52.071,-0.005,-1.009,-0.003,-0.244,-0.122,0.244,-88.929,2.252,-149.128
2025-11-14 23:49:52.071,-0.005,-1.008,-0.002,-0.305,-0.183,0.305,-88.929,2.252,-149.128
2025-11-14 23:49:52.071,-0.006,-1.007,-0.003,-0.305,-0.244,0.244,-88.929,2.252,-149.128
2025-11-14 23:49:52.071,-0.006,-1.008,-0.004,-0.305,-0.183,0.183,-88.929,2.252,-149.123
2025-11-14 23:49:52.071,-0.006,-1.007,-0.004,-0.244,-0.183,0.305,-88.929,2.252,-149.123
2025-11-14 23:49:52.071,-0.004,-1.008,-0.003,-0.244,-0.122,0.305,-88.929,2.252,-149.123
2025-11-14 23:49:52.105,-0.005,-1.007,-0.004,-0.305,-0.244,0.305,-88.929,2.252,-149.117
2025-11-14 23:49:52.105,-0.005,-1.008,-0.004,-0.305,-0.183,0.244,-88.929,2.247,-149.117
2025-11-14 23:49:52.105,-0.006,-1.007,-0.003,-0.305,-0.305,0.305,-88.929,2.247,-149.112
2025-11-14 23:49:52.105,-0.005,-1.009,-0.003,-0.244,-0.183,0.305,-88.929,2.247,-149.112
2025-11-14 23:49:52.207,-0.005,-1.008,-0.003,-0.244,-0.183,0.366,-88.929,2.252,-149.112
2025-11-14 23:49:52.207,-0.004,-1.008,-0.004,-0.305,-0.183,0.244,-88.929,2.252,-149.106
2025-11-14 23:49:52.207,-0.006,-1.008,-0.004,-0.305,-0.122,0.183,-88.929,2.247,-149.106
2025-11-14 23:49:52.207,-0.005,-1.009,-0.004,-0.305,-0.244,0.244,-88.929,2.247,-149.106
2025-11-14 23:49:52.207,-0.004,-1.007,-0.003,-0.305,-0.183,0.305,-88.929,2.247,-149.101
2025-11-14 23:49:52.207,-0.005,-1.006,-0.002,-0.305,-0.183,0.305,-88.929,2.247,-149.101
2025-11-14 23:49:52.207,-0.005,-1.008,-0.003,-0.244,-0.305,0.305,-88.929,2.247,-149.095
2025-11-14 23:49:52.207,-0.005,-1.009,-0.003,-0.244,-0.244,0.366,-88.929,2.247,-149.095
2025-11-14 23:49:52.207,-0.006,-1.008,-0.003,-0.305,-0.244,0.305,-88.929,2.247,-149.095
2025-11-14 23:49:52.207,-0.005,-1.007,-0.003,-0.244,-0.244,0.244,-88.929,2.247,-149.09
2025-11-14 23:49:52.207,-0.005,-1.006,-0.003,-0.244,-0.244,0.305,-88.929,2.247,-149.09
2025-11-14 23:49:52.207,-0.004,-1.006,-0.003,-0.244,-0.244,0.244,-88.929,2.247,-149.084
2025-11-14 23:49:52.226,-0.004,-1.007,-0.003,-0.244,-0.244,0.305,-88.929,2.247,-149.084
2025-11-14 23:49:52.226,-0.005,-1.006,-0.003,-0.305,-0.183,0.305,-88.929,2.247,-149.079
2025-11-14 23:49:52.226,-0.006,-1.007,-0.004,-0.305,-0.183,0.305,-88.929,2.247,-149.079
2025-11-14 23:49:52.226,-0.006,-1.007,-0.004,-0.366,-0.183,0.305,-88.929,2.247,-149.079
2025-11-14 23:49:52.328,-0.006,-1.009,-0.003,-0.305,-0.183,0.305,-88.929,2.247,-149.073
2025-11-14 23:49:52.328,-0.005,-1.008,-0.004,-0.305,-0.183,0.305,-88.929,2.247,-149.073
2025-11-14 23:49:52.328,-0.006,-1.008,-0.003,-0.244,-0.244,0.305,-88.929,2.247,-149.073
2025-11-14 23:49:52.328,-0.005,-1.007,-0.003,-0.305,-0.183,0.183,-88.929,2.247,-149.068
2025-11-14 23:49:52.328,-0.006,-1.007,-0.003,-0.244,-0.183,0.305,-88.929,2.247,-149.068
2025-11-14 23:49:52.328,-0.005,-1.007,-0.004,-0.305,-0.244,0.244,-88.929,2.247,-149.062
2025-11-14 23:49:52.328,-0.005,-1.007,-0.004,-0.305,-0.244,0.305,-88.929,2.247,-149.062
2025-11-14 23:49:52.328,-0.005,-1.008,-0.003,-0.244,-0.183,0.244,-88.929,2.247,-149.062
2025-11-14 23:49:52.356,-0.005,-1.007,-0.004,-0.244,-0.183,0.244,-88.929,2.247,-149.057
2025-11-14 23:49:52.356,-0.005,-1.007,-0.004,-0.305,-0.183,0.305,-88.929,2.247,-149.057
2025-11-14 23:49:52.356,-0.005,-1.009,-0.003,-0.244,-0.244,0.305,-88.929,2.247,-149.057
2025-11-14 23:49:52.356,-0.005,-1.008,-0.003,-0.244,-0.183,0.305,-88.929,2.247,-149.052
2025-11-14 23:49:52.476,-0.005,-1.009,-0.003,-0.244,-0.183,0.244,-88.929,2.247,-149.052
2025-11-14 23:49:52.476,-0.006,-1.008,-0.004,-0.244,-0.122,0.244,-88.929,2.247,-149.052
2025-11-14 23:49:52.476,-0.006,-1.008,-0.003,-0.305,-0.183,0.305,-88.929,2.247,-149.046
2025-11-14 23:49:52.476,-0.005,-1.008,-0.004,-0.305,-0.244,0.305,-88.929,2.247,-149.046
2025-11-14 23:49:52.476,-0.005,-1.007,-0.003,-0.244,-0.244,0.305,-88.929,2.247,-149.041
2025-11-14 23:49:52.476,-0.004,-1.008,-0.004,-0.305,-0.244,0.305,-88.929,2.247,-149.041
2025-11-14 23:49:52.476,-0.005,-1.007,-0.004,-0.305,-0.244,0.305,-88.929,2.247,-149.041
2025-11-14 23:49:52.476,-0.005,-1.007,-0.003,-0.305,-0.183,0.244,-88.929,2.247,-149.035
2025-11-14 23:49:52.476,-0.005,-1.009,-0.004,-0.244,-0.244,0.244,-88.929,2.241,-149.035
2025-11-14 23:49:52.476,-0.005,-1.008,-0.003,-0.305,-0.183,0.305,-88.929,2.241,-149.03
2025-11-14 23:49:52.476,-0.005,-1.007,-0.004,-0.244,-0.183,0.305,-88.929,2.241,-149.03
2025-11-14 23:49:52.476,-0.005,-1.008,-0.003,-0.244,-0.244,0.305,-88.929,2.241,-149.03
2025-11-14 23:49:52.497,-0.005,-1.008,-0.004,-0.305,-0.244,0.305,-88.929,2.241,-149.024
2025-11-14 23:49:52.497,-0.005,-1.007,-0.003,-0.244,-0.183,0.305,-88.929,2.241,-149.024
2025-11-14 23:49:52.497,-0.006,-1.007,-0.003,-0.305,-0.244,0.244,-88.929,2.241,-149.019
2025-11-14 23:49:52.497,-0.006,-1.008,-0.003,-0.305,-0.122,0.305,-88.929,2.241,-149.019
2025-11-14 23:49:52.602,-0.005,-1.008,-0.004,-0.183,-0.183,0.305,-88.929,2.241,-149.019
2025-11-14 23:49:52.602,-0.006,-1.007,-0.004,-0.244,-0.244,0.305,-88.929,2.241,-149.013
2025-11-14 23:49:52.602,-0.005,-1.006,-0.005,-0.305,-0.244,0.305,-88.929,2.241,-149.013
2025-11-14 23:49:52.602,-0.005,-1.007,-0.002,-0.305,-0.183,0.305,-88.929,2.241,-149.013
2025-11-14 23:49:52.602,-0.005,-1.007,-0.003,-0.244,-0.183,0.305,-88.929,2.241,-149.008
2025-11-14 23:49:52.602,-0.006,-1.007,-0.005,-0.305,-0.244,0.305,-88.929,2.241,-149.008
2025-11-14 23:49:52.602,-0.005,-1.007,-0.003,-0.366,-0.183,0.305,-88.929,2.241,-149.002
2025-11-14 23:49:52.602,-0.005,-1.008,-0.002,-0.305,-0.244,0.305,-88.929,2.241,-149.002
2025-11-14 23:49:52.750,-0.004,-1.008,-0.002,-0.244,-0.183,0.244,-88.929,2.241,-149.002
2025-11-14 23:49:52.750,-0.005,-1.006,-0.004,-0.305,-0.183,0.244,-88.929,2.241,-148.997
2025-11-14 23:49:52.750,-0.005,-1.007,-0.003,-0.244,-0.183,0.305,-88.929,2.241,-148.997
2025-11-14 23:49:52.750,-0.006,-1.008,-0.003,-0.305,-0.183,0.183,-88.929,2.241,-148.997
2025-11-14 23:49:52.750,-0.006,-1.009,-0.003,-0.305,-0.244,0.305,-88.929,2.241,-148.991
2025-11-14 23:49:52.750,-0.005,-1.008,-0.004,-0.305,-0.183,0.244,-88.929,2.241,-148.991
2025-11-14 23:49:52.750,-0.005,-1.008,-0.004,-0.244,-0.183,0.244,-88.929,2.241,-148.991
2025-11-14 23:49:52.750,-0.005,-1.006,-0.004,-0.244,-0.183,0.305,-88.929,2.241,-148.986
2025-11-14 23:49:52.750,-0.005,-1.005,-0.005,-0.305,-0.244,0.366,-88.929,2.241,-148.986
2025-11-14 23:49:52.750,-0.005,-1.007,-0.004,-0.244,-0.244,0.305,-88.929,2.241,-148.98
2025-11-14 23:49:52.750,-0.005,-1.006,-0.004,-0.305,-0.183,0.244,-88.929,2.241,-148.98
2025-11-14 23:49:52.750,-0.006,-1.007,-0.004,-0.244,-0.122,0.366,-88.929,2.241,-148.98
2025-11-14 23:49:52.795,-0.006,-1.007,-0.004,-0.305,-0.183,0.305,-88.929,2.241,-148.975
2025-11-14 23:49:52.795,-0.006,-1.007,-0.003,-0.244,-0.183,0.244,-88.929,2.241,-148.975
2025-11-14 23:49:52.795,-0.005,-1.008,-0.003,-0.305,-0.244,0.305,-88.929,2.241,-148.975
2025-11-14 23:49:52.795,-0.005,-1.008,-0.004,-0.244,-0.244,0.305,-88.929,2.241,-148.969
2025-11-14 23:49:52.902,-0.005,-1.008,-0.004,-0.305,-0.183,0.305,-88.929,2.241,-148.969
2025-11-14 23:49:52.902,-0.005,-1.008,-0.004,-0.244,-0.244,0.244,-88.929,2.241,-148.964
2025-11-14 23:49:52.902,-0.005,-1.008,-0.004,-0.244,-0.183,0.244,-88.929,2.241,-148.964
2025-11-14 23:49:52.902,-0.005,-1.008,-0.003,-0.244,-0.183,0.244,-88.929,2.241,-148.964
2025-11-14 23:49:52.902,-0.005,-1.007,-0.003,-0.244,-0.183,0.366,-88.929,2.241,-148.958
2025-11-14 23:49:52.902,-0.005,-1.007,-0.003,-0.244,-0.244,0.305,-88.929,2.241,-148.958
2025-11-14 23:49:52.902,-0.006,-1.007,-0.003,-0.244,-0.244,0.305,-88.929,2.241,-148.958
2025-11-14 23:49:52.902,-0.005,-1.007,-0.003,-0.305,-0.183,0.305,-88.929,2.241,-148.953
2025-11-14 23:49:52.902,-0.005,-1.006,-0.003,-0.244,-0.183,0.305,-88.929,2.241,-148.953
2025-11-14 23:49:52.902,-0.005,-1.006,-0.003,-0.305,-0.183,0.244,-88.929,2.241,-148.947
2025-11-14 23:49:52.902,-0.006,-1.007,-0.004,-0.244,-0.244,0.244,-88.929,2.241,-148.947
2025-11-14 23:49:52.902,-0.005,-1.008,-0.003,-0.305,-0.183,0.305,-88.929,2.241,-148.947
2025-11-14 23:49:52.948,-0.005,-1.008,-0.003,-0.366,-0.183,0.244,-88.929,2.241,-148.942
2025-11-14 23:49:52.948,-0.005,-1.008,-0.004,-0.305,-0.183,0.305,-88.929,2.241,-148.942
2025-11-14 23:49:52.948,-0.006,-1.008,-0.003,-0.305,-0.183,0.244,-88.929,2.241,-148.942
2025-11-14 23:49:52.949,-0.005,-1.008,-0.003,-0.305,-0.183,0.244,-88.929,2.241,-148.936
2025-11-14 23:49:52.949,-0.005,-1.008,-0.003,-0.305,-0.183,0.244,-88.929,2.236,-148.936
2025-11-14 23:49:52.949,-0.004,-1.007,-0.003,-0.244,-0.244,0.244,-88.929,2.236,-148.936
2025-11-14 23:49:52.949,-0.005,-1.008,-0.003,-0.305,-0.244,0.305,-88.929,2.236,-148.931
2025-11-14 23:49:52.949,-0.005,-1.007,-0.004,-0.305,-0.183,0.244,-88.929,2.236,-148.931
2025-11-14 23:49:53.051,-0.006,-1.008,-0.003,-0.244,-0.183,0.305,-88.929,2.236,-148.925
2025-11-14 23:49:53.051,-0.005,-1.007,-0.003,-0.244,-0.244,0.305,-88.929,2.236,-148.925
2025-11-14 23:49:53.051,-0.006,-1.008,-0.005,-0.305,-0.183,0.305,-88.929,2.236,-148.925
2025-11-14 23:49:53.051,-0.004,-1.008,-0.003,-0.305,-0.244,0.244,-88.929,2.236,-148.92
2025-11-14 23:49:53.051,-0.006,-1.007,-0.004,-0.305,-0.183,0.305,-88.929,2.236,-148.92
2025-11-14 23:49:53.051,-0.006,-1.008,-0.004,-0.244,-0.122,0.305,-88.929,2.236,-148.92
2025-11-14 23:49:53.051,-0.005,-1.008,-0.004,-0.244,-0.183,0.305,-88.929,2.236,-148.914
2025-11-14 23:49:53.051,-0.005,-1.007,-0.003,-0.244,-0.183,0.305,-88.929,2.236,-148.914
2025-11-14 23:49:53.068,-0.006,-1.008,-0.002,-0.244,-0.183,0.305,-88.929,2.236,-148.914
2025-11-14 23:49:53.068,-0.005,-1.008,-0.004,-0.305,-0.183,0.305,-88.929,2.236,-148.909
2025-11-14 23:49:53.068,-0.006,-1.007,-0.003,-0.305,-0.183,0.305,-88.929,2.236,-148.909
2025-11-14 23:49:53.068,-0.005,-1.008,-0.003,-0.244,-0.183,0.305,-88.929,2.236,-148.909
2025-11-14 23:49:53.172,-0.005,-1.008,-0.003,-0.305,-0.183,0.305,-88.929,2.236,-148.903
2025-11-14 23:49:53.172,-0.005,-1.007,-0.002,-0.305,-0.244,0.305,-88.929,2.236,-148.903
2025-11-14 23:49:53.172,-0.006,-1.007,-0.004,-0.244,-0.244,0.305,-88.929,2.236,-148.898
2025-11-14 23:49:53.172,-0.006,-1.007,-0.003,-0.244,-0.183,0.305,-88.929,2.236,-148.898
2025-11-14 23:49:53.191,-0.005,-1.008,-0.003,-0.305,-0.122,0.244,-88.929,2.236,-148.898
2025-11-14 23:49:53.191,-0.006,-1.007,-0.003,-0.305,-0.244,0.244,-88.929,2.236,-148.892
2025-11-14 23:49:53.191,-0.005,-1.007,-0.004,-0.244,-0.183,0.183,-88.929,2.236,-148.892
2025-11-14 23:49:53.191,-0.005,-1.007,-0.004,-0.305,-0.244,0.305,-88.929,2.236,-148.892
2025-11-14 23:49:53.191,-0.005,-1.007,-0.004,-0.305,-0.183,0.366,-88.929,2.236,-148.887
2025-11-14 23:49:53.191,-0.005,-1.007,-0.003,-0.305,-0.183,0.366,-88.929,2.236,-148.887
2025-11-14 23:49:53.191,-0.006,-1.008,-0.003,-0.305,-0.122,0.305,-88.929,2.236,-148.887
2025-11-14 23:49:53.191,-0.005,-1.007,-0.003,-0.305,-0.244,0.366,-88.929,2.236,-148.881
2025-11-14 23:49:53.292,-0.005,-1.008,-0.004,-0.244,-0.183,0.244,-88.929,2.236,-148.881
2025-11-14 23:49:53.292,-0.006,-1.008,-0.004,-0.305,-0.122,0.305,-88.929,2.236,-148.881
2025-11-14 23:49:53.292,-0.005,-1.007,-0.004,-0.305,-0.244,0.305,-88.929,2.236,-148.876
2025-11-14 23:49:53.292,-0.005,-1.008,-0.004,-0.244,-0.183,0.366,-88.929,2.241,-148.876
2025-11-14 23:49:53.292,-0.006,-1.008,-0.003,-0.305,-0.183,0.366,-88.929,2.241,-148.876
2025-11-14 23:49:53.292,-0.006,-1.009,-0.003,-0.305,-0.183,0.305,-88.929,2.241,-148.87
2025-11-14 23:49:53.292,-0.006,-1.007,-0.003,-0.244,-0.244,0.305,-88.929,2.241,-148.87
2025-11-14 23:49:53.292,-0.006,-1.009,-0.003,-0.244,-0.183,0.366,-88.929,2.241,-148.865
2025-11-14 23:49:53.306,-0.006,-1.007,-0.003,-0.305,-0.183,0.305,-88.929,2.241,-148.865
2025-11-14 23:49:53.306,-0.006,-1.006,-0.003,-0.305,-0.244,0.305,-88.929,2.241,-148.865
2025-11-14 23:49:53.306,-0.006,-1.008,-0.004,-0.244,-0.244,0.366,-88.929,2.241,-148.859
2025-11-14 23:49:53.306,-0.005,-1.007,-0.003,-0.244,-0.183,0.305,-88.929,2.241,-148.859
2025-11-14 23:49:53.411,-0.005,-1.006,-0.004,-0.244,-0.244,0.305,-88.929,2.241,-148.854
2025-11-14 23:49:53.411,-0.006,-1.005,-0.004,-0.305,-0.244,0.366,-88.929,2.241,-148.854
2025-11-14 23:49:53.411,-0.006,-1.005,-0.003,-0.305,-0.244,0.183,-88.929,2.241,-148.854
2025-11-14 23:49:53.411,-0.006,-1.006,-0.003,-0.244,-0.244,0.305,-88.929,2.241,-148.848
2025-11-14 23:49:53.411,-0.006,-1.006,-0.003,-0.305,-0.183,0.305,-88.929,2.241,-148.848
2025-11-14 23:49:53.411,-0.006,-1.006,-0.003,-0.244,-0.183,0.244,-88.929,2.241,-148.843
2025-11-14 23:49:53.411,-0.005,-1.006,-0.003,-0.305,-0.183,0.244,-88.929,2.241,-148.843
2025-11-14 23:49:53.411,-0.005,-1.008,-0.003,-0.244,-0.183,0.244,-88.929,2.241,-148.843
2025-11-14 23:49:53.426,-0.005,-1.008,-0.002,-0.305,-0.183,0.244,-88.929,2.241,-148.837
2025-11-14 23:49:53.426,-0.005,-1.008,-0.002,-0.305,-0.183,0.244,-88.929,2.241,-148.837
2025-11-14 23:49:53.426,-0.006,-1.008,-0.003,-0.244,-0.244,0.244,-88.929,2.241,-148.837
2025-11-14 23:49:53.426,-0.004,-1.007,-0.004,-0.305,-0.183,0.305,-88.929,2.241,-148.832
2025-11-14 23:49:53.528,-0.005,-1.008,-0.004,-0.305,-0.183,0.305,-88.929,2.241,-148.832
2025-11-14 23:49:53.528,-0.005,-1.007,-0.004,-0.305,-0.183,0.244,-88.929,2.241,-148.832
2025-11-14 23:49:53.528,-0.004,-1.007,-0.004,-0.244,-0.183,0.305,-88.929,2.236,-148.826
2025-11-14 23:49:53.528,-0.005,-1.007,-0.004,-0.305,-0.183,0.305,-88.929,2.241,-148.826
2025-11-14 23:49:53.528,-0.005,-1.008,-0.003,-0.305,-0.244,0.305,-88.929,2.241,-148.826
2025-11-14 23:49:53.528,-0.005,-1.008,-0.003,-0.305,-0.122,0.305,-88.929,2.241,-148.821
2025-11-14 23:49:53.528,-0.005,-1.007,-0.004,-0.244,-0.244,0.366,-88.929,2.241,-148.821
2025-11-14 23:49:53.528,-0.006,-1.007,-0.003,-0.244,-0.244,0.366,-88.929,2.241,-148.815
2025-11-14 23:49:53.546,-0.004,-1.008,-0.003,-0.305,-0.183,0.305,-88.929,2.241,-148.815
2025-11-14 23:49:53.546,-0.005,-1.006,-0.002,-0.366,-0.183,0.366,-88.929,2.241,-148.815
2025-11-14 23:49:53.546,-0.005,-1.006,-0.002,-0.244,-0.183,0.305,-88.934,2.241,-148.81
2025-11-14 23:49:53.546,-0.006,-1.005,-0.004,-0.244,-0.122,0.305,-88.929,2.241,-148.81
2025-11-14 23:49:53.649,-0.006,-1.006,-0.004,-0.305,-0.183,0.305,-88.929,2.241,-148.81
2025-11-14 23:49:53.649,-0.005,-1.008,-0.004,-0.305,-0.183,0.305,-88.929,2.241,-148.804
2025-11-14 23:49:53.649,-0.005,-1.007,-0.003,-0.305,-0.183,0.305,-88.934,2.241,-148.804
2025-11-14 23:49:53.649,-0.006,-1.007,-0.002,-0.244,-0.244,0.244,-88.934,2.241,-148.804
2025-11-14 23:49:53.649,-0.005,-1.007,-0.003,-0.244,-0.183,0.305,-88.929,2.241,-148.799
2025-11-14 23:49:53.649,-0.006,-1.007,-0.003,-0.244,-0.183,0.366,-88.929,2.241,-148.799
2025-11-14 23:49:53.649,-0.006,-1.008,-0.003,-0.305,-0.183,0.244,-88.929,2.241,-148.799
2025-11-14 23:49:53.649,-0.006,-1.008,-0.003,-0.305,-0.183,0.244,-88.934,2.241,-148.793
2025-11-14 23:49:53.666,-0.006,-1.008,-0.003,-0.244,-0.244,0.305,-88.929,2.241,-148.793
2025-11-14 23:49:53.666,-0.005,-1.008,-0.003,-0.305,-0.183,0.305,-88.929,2.241,-148.793
2025-11-14 23:49:53.666,-0.006,-1.007,-0.003,-0.244,-0.244,0.305,-88.929,2.241,-148.788
2025-11-14 23:49:53.666,-0.005,-1.007,-0.003,-0.305,-0.183,0.305,-88.929,2.241,-148.788
2025-11-14 23:49:53.769,-0.005,-1.006,-0.003,-0.244,-0.244,0.305,-88.929,2.241,-148.782
2025-11-14 23:49:53.769,-0.005,-1.007,-0.003,-0.244,-0.183,0.305,-88.929,2.241,-148.782
2025-11-14 23:49:53.769,-0.006,-1.007,-0.004,-0.244,-0.244,0.244,-88.929,2.241,-148.782
2025-11-14 23:49:53.769,-0.005,-1.008,-0.003,-0.366,-0.244,0.305,-88.929,2.241,-148.777
2025-11-14 23:49:53.769,-0.005,-1.007,-0.005,-0.305,-0.183,0.305,-88.929,2.241,-148.777
2025-11-14 23:49:53.769,-0.005,-1.007,-0.004,-0.244,-0.183,0.244,-88.929,2.241,-148.771
2025-11-14 23:49:53.769,-0.006,-1.006,-0.004,-0.244,-0.183,0.183,-88.929,2.241,-148.771
2025-11-14 23:49:53.769,-0.006,-1.007,-0.004,-0.305,-0.183,0.244,-88.929,2.236,-148.771
2025-11-14 23:49:53.786,-0.005,-1.007,-0.003,-0.244,-0.183,0.305,-88.929,2.236,-148.766
2025-11-14 23:49:53.786,-0.005,-1.007,-0.004,-0.305,-0.244,0.305,-88.929,2.236,-148.766
2025-11-14 23:49:53.786,-0.005,-1.006,-0.004,-0.244,-0.244,0.244,-88.929,2.236,-148.76
2025-11-14 23:49:53.786,-0.005,-1.006,-0.003,-0.305,-0.183,0.244,-88.929,2.236,-148.76
2025-11-14 23:49:53.892,-0.005,-1.007,-0.003,-0.366,-0.183,0.305,-88.934,2.236,-148.76
2025-11-14 23:49:53.892,-0.005,-1.007,-0.003,-0.244,-0.183,0.244,-88.929,2.236,-148.755
2025-11-14 23:49:53.892,-0.005,-1.006,-0.003,-0.305,-0.183,0.244,-88.934,2.236,-148.755
2025-11-14 23:49:53.892,-0.006,-1.007,-0.003,-0.244,-0.244,0.305,-88.929,2.236,-148.755
2025-11-14 23:49:53.892,-0.006,-1.007,-0.003,-0.244,-0.244,0.305,-88.929,2.236,-148.749
2025-11-14 23:49:53.892,-0.006,-1.006,-0.003,-0.244,-0.244,0.305,-88.929,2.236,-148.749
2025-11-14 23:49:53.892,-0.006,-1.005,-0.004,-0.305,-0.244,0.305,-88.929,2.236,-148.744
2025-11-14 23:49:53.892,-0.006,-1.007,-0.004,-0.244,-0.183,0.244,-88.929,2.236,-148.744
2025-11-14 23:49:53.906,-0.006,-1.008,-0.005,-0.305,-0.122,0.305,-88.929,2.236,-148.744
2025-11-14 23:49:53.906,-0.005,-1.009,-0.002,-0.244,-0.244,0.305,-88.929,2.236,-148.738
2025-11-14 23:49:53.906,-0.005,-1.008,-0.004,-0.305,-0.183,0.244,-88.929,2.236,-148.738
2025-11-14 23:49:53.906,-0.006,-1.008,-0.003,-0.244,-0.244,0.305,-88.929,2.236,-148.738
2025-11-14 23:49:54.008,-0.006,-1.007,-0.003,-0.305,-0.183,0.305,-88.929,2.236,-148.733
2025-11-14 23:49:54.008,-0.005,-1.008,-0.003,-0.305,-0.183,0.305,-88.929,2.236,-148.733
2025-11-14 23:49:54.008,-0.004,-1.007,-0.004,-0.305,-0.244,0.366,-88.929,2.236,-148.727
2025-11-14 23:49:54.008,-0.005,-1.008,-0.003,-0.244,-0.183,0.244,-88.929,2.236,-148.727
2025-11-14 23:49:54.008,-0.006,-1.008,-0.004,-0.305,-0.183,0.244,-88.929,2.236,-148.727
2025-11-14 23:49:54.008,-0.005,-1.008,-0.003,-0.305,-0.183,0.305,-88.929,2.236,-148.722
2025-11-14 23:49:54.008,-0.005,-1.009,-0.004,-0.305,-0.183,0.244,-88.934,2.236,-148.722
2025-11-14 23:49:54.008,-0.006,-1.008,-0.004,-0.305,-0.183,0.244,-88.934,2.236,-148.722
2025-11-14 23:49:54.157,-0.005,-1.007,-0.003,-0.305,-0.244,0.244,-88.934,2.236,-148.716
2025-11-14 23:49:54.157,-0.005,-1.007,-0.004,-0.244,-0.183,0.244,-88.934,2.236,-148.716
2025-11-14 23:49:54.157,-0.005,-1.008,-0.004,-0.305,-0.122,0.244,-88.934,2.236,-148.716
2025-11-14 23:49:54.157,-0.005,-1.008,-0.005,-0.244,-0.183,0.305,-88.934,2.236,-148.711
2025-11-14 23:49:54.157,-0.005,-1.008,-0.004,-0.244,-0.183,0.305,-88.929,2.236,-148.711
2025-11-14 23:49:54.157,-0.005,-1.008,-0.003,-0.305,-0.183,0.305,-88.934,2.236,-148.711
2025-11-14 23:49:54.157,-0.006,-1.008,-0.004,-0.305,-0.183,0.244,-88.934,2.236,-148.705
2025-11-14 23:49:54.157,-0.005,-1.007,-0.004,-0.305,-0.183,0.305,-88.934,2.236,-148.705
2025-11-14 23:49:54.175,-0.005,-1.007,-0.003,-0.244,-0.183,0.305,-88.934,2.236,-148.705
2025-11-14 23:49:54.175,-0.005,-1.008,-0.003,-0.183,-0.183,0.305,-88.929,2.236,-148.7
2025-11-14 23:49:54.175,-0.004,-1.008,-0.003,-0.244,-0.183,0.244,-88.929,2.236,-148.7
2025-11-14 23:49:54.175,-0.005,-1.008,-0.004,-0.366,-0.244,0.183,-88.934,2.23,-148.7
2025-11-14 23:49:54.264,-0.006,-1.008,-0.004,-0.305,-0.183,0.183,-88.934,2.23,-148.694
2025-11-14 23:49:54.264,-0.005,-1.008,-0.004,-0.305,-0.183,0.244,-88.934,2.23,-148.694
2025-11-14 23:49:54.264,-0.005,-1.007,-0.003,-0.244,-0.183,0.244,-88.934,2.23,-148.694
2025-11-14 23:49:54.264,-0.005,-1.009,-0.003,-0.305,-0.183,0.305,-88.934,2.23,-148.689
2025-11-14 23:49:54.366,-0.004,-1.008,-0.004,-0.305,-0.244,0.244,-88.934,2.23,-148.689
2025-11-14 23:49:54.366,-0.005,-1.008,-0.004,-0.244,-0.244,0.244,-88.934,2.23,-148.683
2025-11-14 23:49:54.366,-0.005,-1.008,-0.004,-0.244,-0.183,0.305,-88.934,2.23,-148.683
2025-11-14 23:49:54.366,-0.005,-1.007,-0.003,-0.244,-0.183,0.305,-88.929,2.23,-148.683
2025-11-14 23:49:54.384,-0.006,-1.008,-0.003,-0.305,-0.244,0.244,-88.929,2.23,-148.678
2025-11-14 23:49:54.384,-0.005,-1.006,-0.003,-0.305,-0.244,0.305,-88.934,2.23,-148.678
2025-11-14 23:49:54.384,-0.005,-1.006,-0.003,-0.305,-0.183,0.305,-88.934,2.23,-148.672
2025-11-14 23:49:54.384,-0.005,-1.006,-0.004,-0.244,-0.183,0.305,-88.934,2.23,-148.672
2025-11-14 23:49:54.444,-0.005,-1.007,-0.003,-0.305,-0.183,0.244,-88.934,2.23,-148.672
2025-11-14 23:49:54.444,-0.005,-1.006,-0.005,-0.305,-0.183,0.305,-88.934,2.23,-148.667
2025-11-14 23:49:54.444,-0.006,-1.008,-0.003,-0.305,-0.122,0.244,-88.934,2.23,-148.667
2025-11-14 23:49:54.444,-0.005,-1.008,-0.003,-0.244,-0.183,0.183,-88.934,2.23,-148.667
2025-11-14 23:49:54.446,-0.006,-1.008,-0.003,-0.305,-0.183,0.244,-88.934,2.225,-148.661
2025-11-14 23:49:54.446,-0.006,-1.008,-0.004,-0.305,-0.183,0.305,-88.934,2.225,-148.661
2025-11-14 23:49:54.446,-0.005,-1.007,-0.004,-0.305,-0.305,0.305,-88.934,2.225,-148.661
2025-11-14 23:49:54.446,-0.006,-1.007,-0.003,-0.305,-0.183,0.244,-88.934,2.225,-148.656
2025-11-14 23:49:54.452,-0.005,-1.007,-0.002,-0.305,-0.183,0.244,-88.934,2.225,-148.656
2025-11-14 23:49:54.452,-0.004,-1.008,-0.003,-0.305,-0.183,0.366,-88.934,2.225,-148.656
2025-11-14 23:49:54.452,-0.004,-1.008,-0.003,-0.244,-0.244,0.244,-88.934,2.225,-148.651
2025-11-14 23:49:54.452,-0.004,-1.008,-0.003,-0.305,-0.183,0.305,-88.934,2.225,-148.651
2025-11-14 23:49:54.553,-0.005,-1.008,-0.004,-0.305,-0.183,0.244,-88.934,2.225,-148.645
2025-11-14 23:49:54.553,-0.005,-1.009,-0.004,-0.244,-0.122,0.244,-88.934,2.225,-148.645
2025-11-14 23:49:54.553,-0.005,-1.007,-0.003,-0.305,-0.183,0.244,-88.934,2.225,-148.645
2025-11-14 23:49:54.553,-0.004,-1.006,-0.004,-0.305,-0.244,0.244,-88.934,2.225,-148.645
2025-11-14 23:49:54.554,-0.005,-1.005,-0.003,-0.305,-0.183,0.244,-88.934,2.225,-148.64
2025-11-14 23:49:54.554,-0.005,-1.007,-0.002,-0.305,-0.183,0.305,-88.934,2.225,-148.64
2025-11-14 23:49:54.554,-0.005,-1.007,-0.003,-0.244,-0.183,0.305,-88.934,2.225,-148.634
2025-11-14 23:49:54.554,-0.006,-1.006,-0.004,-0.244,-0.244,0.305,-88.934,2.225,-148.634
2025-11-14 23:49:54.554,-0.005,-1.007,-0.004,-0.183,-0.183,0.305,-88.934,2.225,-148.634
2025-11-14 23:49:54.554,-0.006,-1.008,-0.002,-0.305,-0.183,0.305,-88.934,2.225,-148.629
2025-11-14 23:49:54.554,-0.005,-1.007,-0.003,-0.244,-0.183,0.305,-88.934,2.225,-148.629
2025-11-14 23:49:54.554,-0.005,-1.007,-0.003,-0.244,-0.183,0.244,-88.934,2.225,-148.629
2025-11-14 23:49:54.554,-0.005,-1.006,-0.004,-0.244,-0.244,0.366,-88.934,2.225,-148.623
2025-11-14 23:49:54.554,-0.005,-1.008,-0.003,-0.305,-0.183,0.244,-88.934,2.225,-148.623
2025-11-14 23:49:54.554,-0.005,-1.008,-0.002,-0.244,-0.183,0.305,-88.934,2.225,-148.623
2025-11-14 23:49:54.554,-0.005,-1.006,-0.003,-0.305,-0.183,0.244,-88.934,2.225,-148.618
2025-11-14 23:49:54.566,-0.005,-1.008,-0.004,-0.244,-0.244,0.244,-88.934,2.225,-148.618
2025-11-14 23:49:54.566,-0.005,-1.008,-0.003,-0.244,-0.183,0.244,-88.934,2.225,-148.612
2025-11-14 23:49:54.566,-0.005,-1.008,-0.003,-0.244,-0.183,0.244,-88.929,2.225,-148.612
2025-11-14 23:49:54.566,-0.005,-1.008,-0.003,-0.305,-0.183,0.244,-88.929,2.219,-148.612
2025-11-14 23:49:54.673,-0.005,-1.008,-0.003,-0.305,-0.244,0.183,-88.934,2.219,-148.607
2025-11-14 23:49:54.673,-0.005,-1.007,-0.004,-0.305,-0.183,0.305,-88.934,2.219,-148.607
2025-11-14 23:49:54.673,-0.005,-1.007,-0.004,-0.244,-0.183,0.305,-88.934,2.219,-148.607
2025-11-14 23:49:54.673,-0.006,-1.007,-0.003,-0.244,-0.183,0.305,-88.929,2.219,-148.601
2025-11-14 23:49:54.673,-0.005,-1.007,-0.003,-0.305,-0.244,0.305,-88.929,2.219,-148.601
2025-11-14 23:49:54.673,-0.005,-1.007,-0.003,-0.305,-0.244,0.305,-88.934,2.219,-148.596
2025-11-14 23:49:54.673,-0.005,-1.009,-0.003,-0.305,-0.183,0.305,-88.934,2.219,-148.596
2025-11-14 23:49:54.673,-0.005,-1.008,-0.002,-0.244,-0.183,0.305,-88.934,2.219,-148.596
2025-11-14 23:49:54.720,-0.006,-1.007,-0.003,-0.244,-0.183,0.244,-88.929,2.219,-148.59
2025-11-14 23:49:54.720,-0.005,-1.007,-0.003,-0.305,-0.183,0.244,-88.929,2.219,-148.59
2025-11-14 23:49:54.720,-0.005,-1.007,-0.003,-0.305,-0.183,0.366,-88.934,2.219,-148.59
2025-11-14 23:49:54.720,-0.006,-1.007,-0.004,-0.244,-0.183,0.366,-88.934,2.219,-148.585
2025-11-14 23:49:54.823,-0.006,-1.007,-0.003,-0.244,-0.183,0.305,-88.929,2.225,-148.585
2025-11-14 23:49:54.823,-0.005,-1.007,-0.003,-0.305,-0.244,0.244,-88.929,2.219,-148.585
2025-11-14 23:49:54.823,-0.005,-1.007,-0.003,-0.305,-0.244,0.366,-88.934,2.225,-148.579
2025-11-14 23:49:54.823,-0.005,-1.004,-0.004,-0.244,-0.244,0.305,-88.934,2.225,-148.579
2025-11-14 23:49:54.823,-0.005,-1.006,-0.003,-0.305,-0.244,0.305,-88.929,2.225,-148.574
2025-11-14 23:49:54.823,-0.004,-1.007,-0.003,-0.244,-0.183,0.244,-88.929,2.225,-148.574
2025-11-14 23:49:54.823,-0.005,-1.007,-0.004,-0.244,-0.183,0.244,-88.929,2.219,-148.574
2025-11-14 23:49:54.823,-0.005,-1.005,-0.004,-0.244,-0.244,0.244,-88.929,2.219,-148.568
2025-11-14 23:49:54.823,-0.006,-1.007,-0.003,-0.244,-0.122,0.244,-88.929,2.219,-148.568
2025-11-14 23:49:54.824,-0.005,-1.006,-0.004,-0.305,-0.244,0.244,-88.929,2.219,-148.563
2025-11-14 23:49:54.824,-0.005,-1.006,-0.004,-0.305,-0.183,0.305,-88.929,2.219,-148.563
2025-11-14 23:49:54.824,-0.004,-1.008,-0.004,-0.305,-0.183,0.305,-88.929,2.219,-148.563
2025-11-14 23:49:54.836,-0.006,-1.009,-0.003,-0.244,-0.183,0.305,-88.929,2.219,-148.557
2025-11-14 23:49:54.836,-0.006,-1.008,-0.003,-0.305,-0.305,0.305,-88.929,2.219,-148.557
2025-11-14 23:49:54.836,-0.006,-1.008,-0.004,-0.244,-0.183,0.305,-88.929,2.219,-148.557
2025-11-14 23:49:54.836,-0.005,-1.008,-0.003,-0.244,-0.183,0.305,-88.929,2.219,-148.552
2025-11-14 23:49:54.940,-0.005,-1.008,-0.003,-0.305,-0.305,0.305,-88.929,2.219,-148.552
2025-11-14 23:49:54.940,-0.006,-1.008,-0.003,-0.305,-0.244,0.305,-88.929,2.219,-148.546
2025-11-14 23:49:54.940,-0.006,-1.007,-0.004,-0.244,-0.183,0.244,-88.929,2.219,-148.546
2025-11-14 23:49:54.940,-0.005,-1.007,-0.003,-0.305,-0.122,0.244,-88.929,2.219,-148.546
2025-11-14 23:49:54.940,-0.005,-1.007,-0.003,-0.305,-0.122,0.305,-88.929,2.219,-148.541
2025-11-14 23:49:54.940,-0.005,-1.006,-0.004,-0.244,-0.244,0.244,-88.929,2.219,-148.541
2025-11-14 23:49:54.940,-0.006,-1.008,-0.004,-0.305,-0.183,0.244,-88.929,2.219,-148.541
2025-11-14 23:49:54.940,-0.005,-1.008,-0.004,-0.244,-0.244,0.305,-88.929,2.219,-148.535
2025-11-14 23:49:54.956,-0.005,-1.008,-0.004,-0.244,-0.244,0.305,-88.929,2.219,-148.535
2025-11-14 23:49:54.956,-0.006,-1.008,-0.004,-0.305,-0.183,0.305,-88.929,2.219,-148.53
2025-11-14 23:49:54.956,-0.005,-1.008,-0.003,-0.305,-0.183,0.244,-88.929,2.219,-148.53
2025-11-14 23:49:54.956,-0.004,-1.007,-0.002,-0.244,-0.244,0.244,-88.929,2.219,-148.53
2025-11-14 23:49:55.059,-0.005,-1.008,-0.004,-0.244,-0.244,0.183,-88.929,2.219,-148.524
2025-11-14 23:49:55.059,-0.005,-1.008,-0.004,-0.244,-0.183,0.305,-88.929,2.219,-148.524
2025-11-14 23:49:55.059,-0.005,-1.008,-0.003,-0.305,-0.244,0.305,-88.929,2.219,-148.519
2025-11-14 23:49:55.059,-0.006,-1.009,-0.003,-0.305,-0.183,0.244,-88.929,2.219,-148.519
2025-11-14 23:49:55.076,-0.005,-1.007,-0.005,-0.305,-0.183,0.366,-88.929,2.219,-148.519
2025-11-14 23:49:55.076,-0.005,-1.007,-0.003,-0.244,-0.183,0.305,-88.929,2.219,-148.513
2025-11-14 23:49:55.076,-0.005,-1.007,-0.002,-0.183,-0.183,0.244,-88.929,2.219,-148.513
2025-11-14 23:49:55.076,-0.006,-1.009,-0.004,-0.244,-0.183,0.244,-88.929,2.219,-148.513
2025-11-14 23:49:55.105,-0.004,-1.008,-0.004,-0.305,-0.244,0.305,-88.929,2.219,-148.508
2025-11-14 23:49:55.105,-0.005,-1.008,-0.003,-0.305,-0.122,0.305,-88.929,2.219,-148.508
2025-11-14 23:49:55.105,-0.006,-1.007,-0.004,-0.244,-0.244,0.305,-88.929,2.219,-148.508
2025-11-14 23:49:55.105,-0.005,-1.009,-0.003,-0.305,-0.183,0.244,-88.929,2.219,-148.502
2025-11-14 23:49:55.237,-0.005,-1.009,-0.004,-0.244,-0.244,0.305,-88.929,2.219,-148.502
2025-11-14 23:49:55.237,-0.006,-1.009,-0.003,-0.305,-0.122,0.305,-88.929,2.219,-148.502
2025-11-14 23:49:55.237,-0.005,-1.007,-0.003,-0.305,-0.183,0.183,-88.929,2.219,-148.497
2025-11-14 23:49:55.237,-0.005,-1.006,-0.003,-0.244,-0.183,0.244,-88.929,2.214,-148.497
2025-11-14 23:49:55.237,-0.006,-1.007,-0.004,-0.305,-0.244,0.305,-88.929,2.214,-148.491
2025-11-14 23:49:55.237,-0.006,-1.007,-0.003,-0.305,-0.183,0.244,-88.929,2.214,-148.491
2025-11-14 23:49:55.237,-0.005,-1.007,-0.003,-0.305,-0.183,0.244,-88.929,2.214,-148.491
2025-11-14 23:49:55.237,-0.005,-1.007,-0.004,-0.244,-0.183,0.366,-88.929,2.214,-148.486
2025-11-14 23:49:55.237,-0.006,-1.008,-0.003,-0.244,-0.122,0.305,-88.929,2.214,-148.486
2025-11-14 23:49:55.237,-0.005,-1.008,-0.003,-0.244,-0.122,0.366,-88.929,2.219,-148.486
2025-11-14 23:49:55.237,-0.005,-1.009,-0.004,-0.244,-0.183,0.244,-88.929,2.219,-148.486
2025-11-14 23:49:55.237,-0.006,-1.008,-0.004,-0.305,-0.244,0.244,-88.929,2.214,-148.48
