datetime,AccX,AccY,AccZ,AsX,AsY,AsZ,AngX,AngY,AngZ
2025-11-13 23:09:51.486,-0.019,-1.004,0.074,-0.244,-0.183,0.427,-88.478,3.246,37.601
2025-11-13 23:09:51.486,-0.021,-1.003,0.071,-0.183,-0.244,0.305,-88.478,3.246,37.601
2025-11-13 23:09:51.486,-0.021,-1.002,0.071,-0.366,-0.244,0.488,-88.478,3.246,37.601
2025-11-13 23:09:51.487,-0.02,-1.003,0.072,-0.183,-0.244,0.305,-88.478,3.246,37.606
2025-11-13 23:09:51.516,-0.022,-1.003,0.069,-0.183,-0.305,0.305,-88.478,3.246,37.606
2025-11-13 23:09:51.516,-0.021,-1.002,0.072,-0.427,-0.244,0.488,-88.484,3.246,37.612
2025-11-13 23:09:51.516,-0.019,-1.001,0.072,-0.122,-0.244,0.305,-88.484,3.246,37.612
2025-11-13 23:09:51.516,-0.022,-1.002,0.07,-0.305,-0.305,0.427,-88.484,3.252,37.617
2025-11-13 23:09:51.645,-0.021,-1.003,0.072,-0.244,-0.244,0.366,-88.484,3.252,37.617
2025-11-13 23:09:51.645,-0.021,-1.003,0.071,-0.061,-0.305,0.244,-88.484,3.252,37.623
2025-11-13 23:09:51.646,-0.023,-1.003,0.071,-0.366,-0.244,0.488,-88.484,3.252,37.623
2025-11-13 23:09:51.646,-0.02,-1.001,0.073,-0.305,-0.244,0.427,-88.489,3.252,37.628
2025-11-13 23:09:51.646,-0.022,-1.004,0.072,-0.122,-0.244,0.183,-88.489,3.252,37.628
2025-11-13 23:09:51.646,-0.021,-1.004,0.072,-0.427,-0.244,0.488,-88.489,3.252,37.634
2025-11-13 23:09:51.646,-0.02,-1.002,0.073,-0.183,-0.305,0.244,-88.489,3.252,37.634
2025-11-13 23:09:51.646,-0.022,-1.002,0.071,-0.244,-0.244,0.366,-88.489,3.252,37.639
2025-11-13 23:09:51.646,-0.02,-1.003,0.072,-0.427,-0.183,0.549,-88.495,3.252,37.639
2025-11-13 23:09:51.646,-0.02,-1.003,0.073,-0.183,-0.305,0.244,-88.495,3.252,37.645
2025-11-13 23:09:51.646,-0.022,-1.003,0.07,-0.305,-0.305,0.427,-88.495,3.252,37.645
2025-11-13 23:09:51.646,-0.02,-1.002,0.074,-0.305,-0.183,0.488,-88.495,3.252,37.65
2025-11-13 23:09:51.665,-0.021,-1.001,0.072,-0.122,-0.305,0.244,-88.495,3.252,37.65
2025-11-13 23:09:51.665,-0.022,-1.003,0.07,-0.366,-0.244,0.488,-88.5,3.257,37.656
2025-11-13 23:09:51.665,-0.019,-1.004,0.074,-0.305,-0.244,0.305,-88.5,3.257,37.656
2025-11-13 23:09:51.665,-0.021,-1.004,0.07,-0.244,-0.244,0.244,-88.5,3.257,37.656
2025-11-13 23:09:51.803,-0.021,-1.003,0.071,-0.427,-0.305,0.549,-88.5,3.257,37.661
2025-11-13 23:09:51.803,-0.02,-1.002,0.073,-0.122,-0.366,0.305,-88.506,3.257,37.667
2025-11-13 23:09:51.803,-0.021,-1.003,0.07,-0.305,-0.366,0.427,-88.506,3.257,37.667
2025-11-13 23:09:51.803,-0.021,-1.003,0.072,-0.427,-0.244,0.427,-88.506,3.257,37.672
2025-11-13 23:09:51.803,-0.021,-1.004,0.072,-0.183,-0.244,0.183,-88.506,3.257,37.672
2025-11-13 23:09:51.803,-0.021,-1.005,0.069,-0.366,-0.244,0.366,-88.511,3.257,37.678
2025-11-13 23:09:51.803,-0.018,-1.003,0.072,-0.244,-0.244,0.305,-88.511,3.257,37.678
2025-11-13 23:09:51.803,-0.021,-1.003,0.072,-0.122,-0.244,0.244,-88.511,3.257,37.683
2025-11-13 23:09:51.803,-0.021,-1.004,0.071,-0.366,-0.183,0.488,-88.511,3.257,37.683
2025-11-13 23:09:51.803,-0.02,-1.004,0.074,-0.183,-0.305,0.305,-88.511,3.257,37.683
2025-11-13 23:09:51.803,-0.022,-1.004,0.071,-0.244,-0.305,0.366,-88.511,3.257,37.689
2025-11-13 23:09:51.803,-0.021,-1.003,0.072,-0.427,-0.183,0.488,-88.517,3.257,37.689
2025-11-13 23:09:51.946,-0.02,-1.003,0.073,-0.183,-0.305,0.183,-88.517,3.257,37.694
2025-11-13 23:09:51.946,-0.022,-1.005,0.071,-0.305,-0.244,0.366,-88.517,3.257,37.694
2025-11-13 23:09:51.946,-0.019,-1.002,0.073,-0.305,-0.244,0.488,-88.517,3.257,37.7
2025-11-13 23:09:51.946,-0.02,-1.003,0.072,-0.122,-0.305,0.244,-88.522,3.257,37.7
2025-11-13 23:09:51.946,-0.022,-1.003,0.07,-0.366,-0.244,0.427,-88.522,3.257,37.705
2025-11-13 23:09:51.946,-0.019,-1.004,0.073,-0.244,-0.244,0.305,-88.522,3.257,37.705
2025-11-13 23:09:51.946,-0.021,-1.004,0.07,-0.183,-0.244,0.244,-88.522,3.257,37.711
2025-11-13 23:09:51.946,-0.021,-1.002,0.071,-0.427,-0.183,0.366,-88.522,3.257,37.711
2025-11-13 23:09:51.946,-0.019,-1.003,0.073,-0.183,-0.244,0.305,-88.528,3.257,37.716
2025-11-13 23:09:51.946,-0.022,-1.003,0.07,-0.244,-0.244,0.427,-88.528,3.257,37.716
2025-11-13 23:09:51.946,-0.02,-1.003,0.073,-0.366,-0.244,0.488,-88.528,3.257,37.716
2025-11-13 23:09:51.946,-0.021,-1.002,0.072,-0.122,-0.305,0.244,-88.528,3.257,37.722
2025-11-13 23:09:51.965,-0.022,-1.003,0.07,-0.366,-0.244,0.427,-88.528,3.257,37.722
2025-11-13 23:09:51.965,-0.019,-1.003,0.073,-0.366,-0.244,0.427,-88.533,3.257,37.727
2025-11-13 23:09:51.965,-0.021,-1.004,0.071,-0.183,-0.305,0.244,-88.533,3.257,37.727
2025-11-13 23:09:51.965,-0.021,-1.004,0.072,-0.488,-0.244,0.488,-88.533,3.257,37.733
2025-11-13 23:09:52.101,-0.019,-1.001,0.073,-0.244,-0.305,0.305,-88.533,3.257,37.733
2025-11-13 23:09:52.102,-0.022,-1.003,0.07,-0.305,-0.244,0.244,-88.539,3.257,37.738
2025-11-13 23:09:52.102,-0.02,-1.003,0.071,-0.427,-0.244,0.488,-88.539,3.257,37.738
2025-11-13 23:09:52.102,-0.02,-1.003,0.073,-0.122,-0.366,0.244,-88.539,3.257,37.744
2025-11-13 23:09:52.102,-0.023,-1.003,0.07,-0.305,-0.244,0.366,-88.539,3.257,37.749
2025-11-13 23:09:52.102,-0.02,-1.002,0.073,-0.305,-0.244,0.366,-88.544,3.257,37.749
2025-11-13 23:09:52.102,-0.021,-1.003,0.072,-0.122,-0.244,0.183,-88.539,3.257,37.749
2025-11-13 23:09:52.102,-0.021,-1.002,0.071,-0.366,-0.183,0.549,-88.544,3.263,37.755
2025-11-13 23:09:52.102,-0.02,-1.001,0.073,-0.244,-0.305,0.366,-88.544,3.263,37.755
2025-11-13 23:09:52.102,-0.021,-1.004,0.071,-0.183,-0.244,0.244,-88.544,3.257,37.76
2025-11-13 23:09:52.102,-0.021,-1.004,0.072,-0.427,-0.244,0.427,-88.544,3.263,37.76
2025-11-13 23:09:52.102,-0.019,-1.003,0.073,-0.122,-0.305,0.244,-88.544,3.257,37.766
2025-11-13 23:09:52.118,-0.022,-1.004,0.07,-0.244,-0.305,0.366,-88.55,3.257,37.766
2025-11-13 23:09:52.118,-0.02,-1.002,0.073,-0.366,-0.244,0.549,-88.55,3.263,37.771
2025-11-13 23:09:52.118,-0.02,-1.003,0.072,-0.122,-0.244,0.244,-88.55,3.263,37.771
2025-11-13 23:09:52.118,-0.021,-1.003,0.071,-0.366,-0.244,0.488,-88.55,3.263,37.776
2025-11-13 23:09:52.147,-0.02,-1.002,0.073,-0.244,-0.244,0.427,-88.55,3.263,37.776
2025-11-13 23:09:52.147,-0.021,-1.004,0.071,-0.183,-0.305,0.244,-88.55,3.263,37.782
2025-11-13 23:09:52.147,-0.022,-1.003,0.072,-0.366,-0.244,0.488,-88.555,3.263,37.782
2025-11-13 23:09:52.147,-0.018,-1.002,0.073,-0.183,-0.305,0.305,-88.555,3.263,37.787
2025-11-13 23:09:52.256,-0.021,-1.001,0.07,-0.244,-0.244,0.305,-88.555,3.263,37.787
2025-11-13 23:09:52.256,-0.021,-1.001,0.072,-0.427,-0.183,0.427,-88.555,3.263,37.787
2025-11-13 23:09:52.256,-0.02,-1.002,0.072,-0.122,-0.305,0.183,-88.555,3.263,37.793
2025-11-13 23:09:52.256,-0.022,-1.003,0.07,-0.305,-0.244,0.366,-88.555,3.263,37.798
2025-11-13 23:09:52.256,-0.021,-1.0,0.073,-0.305,-0.305,0.366,-88.561,3.263,37.798
2025-11-13 23:09:52.257,-0.021,-1.003,0.071,-0.061,-0.244,0.244,-88.555,3.263,37.804
2025-11-13 23:09:52.257,-0.022,-1.002,0.071,-0.427,-0.183,0.427,-88.561,3.263,37.804
2025-11-13 23:09:52.257,-0.02,-1.002,0.073,-0.244,-0.244,0.366,-88.561,3.263,37.804
2025-11-13 23:09:52.265,-0.022,-1.002,0.071,-0.244,-0.244,0.366,-88.561,3.263,37.809
2025-11-13 23:09:52.265,-0.021,-1.003,0.072,-0.366,-0.244,0.488,-88.566,3.263,37.809
2025-11-13 23:09:52.265,-0.02,-1.003,0.073,-0.183,-0.305,0.244,-88.566,3.263,37.815
2025-11-13 23:09:52.265,-0.022,-1.003,0.07,-0.305,-0.305,0.366,-88.566,3.263,37.815
2025-11-13 23:09:52.400,-0.02,-1.002,0.072,-0.366,-0.244,0.488,-88.566,3.263,37.82
2025-11-13 23:09:52.400,-0.021,-1.003,0.073,-0.122,-0.305,0.305,-88.566,3.263,37.82
2025-11-13 23:09:52.400,-0.022,-1.004,0.071,-0.366,-0.305,0.427,-88.566,3.268,37.826
2025-11-13 23:09:52.400,-0.02,-1.003,0.072,-0.305,-0.305,0.305,-88.572,3.268,37.826
2025-11-13 23:09:52.400,-0.021,-1.001,0.072,-0.183,-0.305,0.244,-88.572,3.263,37.831
2025-11-13 23:09:52.400,-0.021,-1.002,0.071,-0.366,-0.244,0.488,-88.572,3.268,37.831
2025-11-13 23:09:52.400,-0.02,-1.003,0.073,-0.183,-0.244,0.305,-88.572,3.268,37.837
2025-11-13 23:09:52.400,-0.021,-1.003,0.07,-0.244,-0.305,0.305,-88.572,3.263,37.842
2025-11-13 23:09:52.415,-0.021,-1.002,0.072,-0.366,-0.305,0.488,-88.572,3.268,37.842
2025-11-13 23:09:52.415,-0.021,-1.003,0.074,-0.244,-0.244,0.244,-88.577,3.268,37.848
2025-11-13 23:09:52.415,-0.022,-1.003,0.071,-0.305,-0.305,0.366,-88.577,3.268,37.848
2025-11-13 23:09:52.415,-0.02,-1.003,0.073,-0.366,-0.305,0.366,-88.577,3.268,37.853
2025-11-13 23:09:52.546,-0.02,-1.004,0.071,-0.183,-0.305,0.305,-88.577,3.268,37.853
2025-11-13 23:09:52.546,-0.021,-1.003,0.071,-0.366,-0.183,0.427,-88.583,3.268,37.859
2025-11-13 23:09:52.546,-0.02,-1.003,0.073,-0.244,-0.244,0.366,-88.583,3.268,37.859
2025-11-13 23:09:52.546,-0.021,-1.004,0.07,-0.183,-0.244,0.305,-88.583,3.268,37.859
2025-11-13 23:09:52.546,-0.021,-1.003,0.071,-0.366,-0.244,0.488,-88.583,3.268,37.864
2025-11-13 23:09:52.546,-0.02,-1.003,0.072,-0.244,-0.305,0.305,-88.583,3.268,37.864
2025-11-13 23:09:52.546,-0.021,-1.004,0.07,-0.244,-0.183,0.305,-88.583,3.268,37.87
2025-11-13 23:09:52.546,-0.02,-1.003,0.072,-0.305,-0.305,0.366,-88.583,3.268,37.87
2025-11-13 23:09:52.546,-0.021,-1.004,0.072,-0.183,-0.244,0.244,-88.583,3.268,37.875
2025-11-13 23:09:52.546,-0.022,-1.003,0.071,-0.366,-0.244,0.366,-88.588,3.268,37.875
2025-11-13 23:09:52.546,-0.021,-1.003,0.072,-0.305,-0.244,0.366,-88.588,3.268,37.881
2025-11-13 23:09:52.546,-0.021,-1.003,0.071,-0.183,-0.244,0.305,-88.588,3.268,37.881
2025-11-13 23:09:52.572,-0.021,-1.004,0.071,-0.366,-0.244,0.488,-88.588,3.268,37.886
2025-11-13 23:09:52.572,-0.02,-1.003,0.073,-0.183,-0.244,0.305,-88.588,3.268,37.886
2025-11-13 23:09:52.572,-0.021,-1.003,0.071,-0.183,-0.305,0.305,-88.588,3.268,37.892
2025-11-13 23:09:52.572,-0.021,-1.003,0.072,-0.366,-0.244,0.427,-88.594,3.268,37.892
2025-11-13 23:09:52.600,-0.02,-1.003,0.073,-0.183,-0.305,0.244,-88.594,3.268,37.897
2025-11-13 23:09:52.600,-0.021,-1.003,0.071,-0.305,-0.244,0.366,-88.594,3.268,37.897
2025-11-13 23:09:52.600,-0.02,-1.003,0.073,-0.366,-0.244,0.427,-88.594,3.268,37.903
2025-11-13 23:09:52.600,-0.02,-1.003,0.072,-0.183,-0.244,0.244,-88.594,3.268,37.903
2025-11-13 23:09:52.710,-0.022,-1.004,0.071,-0.366,-0.244,0.366,-88.599,3.268,37.903
2025-11-13 23:09:52.710,-0.02,-1.002,0.073,-0.305,-0.244,0.305,-88.599,3.268,37.908
2025-11-13 23:09:52.710,-0.021,-1.003,0.07,-0.183,-0.305,0.244,-88.599,3.268,37.908
2025-11-13 23:09:52.710,-0.021,-1.003,0.071,-0.366,-0.244,0.427,-88.599,3.268,37.914
2025-11-13 23:09:52.710,-0.019,-1.002,0.073,-0.183,-0.244,0.244,-88.599,3.268,37.914
2025-11-13 23:09:52.710,-0.021,-1.002,0.071,-0.366,-0.244,0.366,-88.599,3.268,37.919
2025-11-13 23:09:52.711,-0.02,-1.002,0.072,-0.183,-0.244,0.244,-88.605,3.268,37.919
2025-11-13 23:09:52.711,-0.023,-1.0,0.071,-0.305,-0.244,0.427,-88.605,3.268,37.925
2025-11-13 23:09:52.715,-0.02,-1.001,0.073,-0.305,-0.244,0.366,-88.605,3.268,37.925
2025-11-13 23:09:52.715,-0.021,-1.001,0.071,-0.183,-0.244,0.305,-88.605,3.268,37.93
2025-11-13 23:09:52.715,-0.021,-1.001,0.071,-0.366,-0.305,0.427,-88.605,3.268,37.93
2025-11-13 23:09:52.715,-0.02,-1.003,0.074,-0.244,-0.244,0.305,-88.605,3.268,37.936
2025-11-13 23:09:52.851,-0.02,-1.003,0.07,-0.244,-0.305,0.305,-88.605,3.268,37.936
2025-11-13 23:09:52.851,-0.021,-1.002,0.072,-0.366,-0.183,0.488,-88.61,3.268,37.941
2025-11-13 23:09:52.851,-0.021,-1.004,0.072,-0.183,-0.244,0.305,-88.61,3.268,37.941
2025-11-13 23:09:52.851,-0.021,-1.004,0.07,-0.305,-0.244,0.366,-88.61,3.268,37.941
2025-11-13 23:09:52.851,-0.02,-1.003,0.073,-0.366,-0.244,0.427,-88.61,3.268,37.947
2025-11-13 23:09:52.851,-0.021,-1.004,0.07,-0.122,-0.244,0.305,-88.61,3.268,37.947
2025-11-13 23:09:52.851,-0.021,-1.003,0.071,-0.305,-0.244,0.427,-88.61,3.268,37.952
2025-11-13 23:09:52.851,-0.019,-1.002,0.073,-0.305,-0.305,0.305,-88.616,3.268,37.952
2025-11-13 23:09:52.851,-0.021,-1.003,0.071,-0.244,-0.183,0.244,-88.616,3.268,37.958
2025-11-13 23:09:52.851,-0.021,-1.003,0.071,-0.366,-0.244,0.366,-88.616,3.268,37.958
2025-11-13 23:09:52.851,-0.021,-1.002,0.072,-0.244,-0.244,0.244,-88.616,3.268,37.963
2025-11-13 23:09:52.851,-0.022,-1.002,0.071,-0.244,-0.305,0.305,-88.616,3.268,37.963
2025-11-13 23:09:52.898,-0.021,-1.001,0.072,-0.366,-0.183,0.427,-88.616,3.268,37.969
2025-11-13 23:09:52.898,-0.021,-1.001,0.071,-0.244,-0.305,0.305,-88.621,3.268,37.969
2025-11-13 23:09:52.899,-0.022,-1.002,0.071,-0.305,-0.244,0.427,-88.621,3.268,37.974
2025-11-13 23:09:52.899,-0.021,-1.001,0.073,-0.305,-0.244,0.427,-88.621,3.268,37.974
2025-11-13 23:09:53.000,-0.021,-1.002,0.072,-0.244,-0.244,0.244,-88.621,3.268,37.974
2025-11-13 23:09:53.000,-0.022,-1.001,0.071,-0.305,-0.183,0.488,-88.621,3.268,37.98
2025-11-13 23:09:53.000,-0.021,-1.001,0.073,-0.305,-0.244,0.305,-88.627,3.268,37.98
2025-11-13 23:09:53.000,-0.021,-1.003,0.07,-0.305,-0.244,0.305,-88.627,3.268,37.985
2025-11-13 23:09:53.000,-0.021,-1.001,0.072,-0.366,-0.244,0.427,-88.627,3.268,37.985
2025-11-13 23:09:53.000,-0.02,-1.0,0.072,-0.183,-0.244,0.305,-88.627,3.268,37.991
2025-11-13 23:09:53.000,-0.023,-1.002,0.07,-0.366,-0.183,0.427,-88.627,3.268,37.991
2025-11-13 23:09:53.000,-0.021,-1.003,0.073,-0.305,-0.244,0.366,-88.632,3.268,37.991
2025-11-13 23:09:53.019,-0.021,-1.003,0.072,-0.183,-0.244,0.244,-88.632,3.268,37.996
2025-11-13 23:09:53.019,-0.02,-1.002,0.071,-0.305,-0.244,0.366,-88.632,3.268,37.996
2025-11-13 23:09:53.019,-0.02,-1.002,0.073,-0.305,-0.183,0.305,-88.632,3.268,38.002
2025-11-13 23:09:53.019,-0.021,-1.003,0.07,-0.122,-0.244,0.305,-88.632,3.268,38.002
2025-11-13 23:09:53.148,-0.021,-1.004,0.071,-0.305,-0.244,0.427,-88.632,3.268,38.007
2025-11-13 23:09:53.148,-0.02,-1.003,0.073,-0.244,-0.244,0.305,-88.632,3.268,38.007
2025-11-13 23:09:53.148,-0.021,-1.002,0.071,-0.244,-0.244,0.305,-88.632,3.268,38.007
2025-11-13 23:09:53.148,-0.021,-1.003,0.073,-0.305,-0.183,0.427,-88.632,3.268,38.013
2025-11-13 23:09:53.148,-0.021,-1.003,0.072,-0.183,-0.305,0.305,-88.632,3.268,38.013
2025-11-13 23:09:53.148,-0.022,-1.001,0.072,-0.305,-0.244,0.427,-88.638,3.268,38.018
2025-11-13 23:09:53.148,-0.021,-1.002,0.073,-0.244,-0.244,0.488,-88.638,3.268,38.018
2025-11-13 23:09:53.148,-0.021,-1.004,0.072,-0.244,-0.183,0.305,-88.638,3.274,38.024
2025-11-13 23:09:53.148,-0.021,-1.003,0.072,-0.305,-0.305,0.366,-88.638,3.274,38.024
2025-11-13 23:09:53.148,-0.02,-1.003,0.073,-0.244,-0.244,0.305,-88.638,3.274,38.029
2025-11-13 23:09:53.148,-0.021,-1.004,0.07,-0.305,-0.244,0.366,-88.638,3.274,38.029
2025-11-13 23:09:53.148,-0.021,-1.003,0.072,-0.366,-0.244,0.366,-88.643,3.274,38.035
2025-11-13 23:09:53.165,-0.02,-1.004,0.072,-0.244,-0.244,0.305,-88.643,3.274,38.035
2025-11-13 23:09:53.165,-0.021,-1.004,0.072,-0.305,-0.305,0.305,-88.643,3.268,38.035
2025-11-13 23:09:53.165,-0.021,-1.003,0.072,-0.305,-0.244,0.427,-88.643,3.274,38.04
2025-11-13 23:09:53.165,-0.02,-1.002,0.072,-0.305,-0.305,0.366,-88.643,3.274,38.04
2025-11-13 23:09:53.303,-0.022,-1.003,0.071,-0.305,-0.244,0.427,-88.643,3.274,38.046
2025-11-13 23:09:53.303,-0.02,-1.003,0.074,-0.305,-0.183,0.427,-88.649,3.274,38.046
2025-11-13 23:09:53.303,-0.02,-1.002,0.072,-0.183,-0.244,0.305,-88.649,3.274,38.051
2025-11-13 23:09:53.303,-0.021,-1.003,0.071,-0.305,-0.305,0.427,-88.649,3.274,38.051
2025-11-13 23:09:53.303,-0.021,-1.002,0.072,-0.305,-0.183,0.305,-88.649,3.274,38.057
2025-11-13 23:09:53.303,-0.021,-1.003,0.072,-0.244,-0.244,0.366,-88.649,3.274,38.057
2025-11-13 23:09:53.303,-0.021,-1.003,0.074,-0.366,-0.305,0.427,-88.649,3.274,38.062
2025-11-13 23:09:53.303,-0.02,-1.001,0.072,-0.244,-0.305,0.366,-88.649,3.274,38.062
2025-11-13 23:09:53.303,-0.021,-1.001,0.072,-0.305,-0.244,0.366,-88.654,3.274,38.068
2025-11-13 23:09:53.303,-0.021,-1.001,0.072,-0.305,-0.244,0.427,-88.654,3.274,38.068
2025-11-13 23:09:53.303,-0.02,-1.003,0.07,-0.122,-0.183,0.305,-88.654,3.274,38.073
2025-11-13 23:09:53.303,-0.021,-1.003,0.071,-0.305,-0.244,0.427,-88.654,3.274,38.073
2025-11-13 23:09:53.315,-0.02,-1.001,0.073,-0.305,-0.244,0.366,-88.654,3.274,38.073
2025-11-13 23:09:53.315,-0.021,-1.002,0.072,-0.244,-0.244,0.305,-88.654,3.274,38.079
2025-11-13 23:09:53.315,-0.021,-1.003,0.072,-0.305,-0.244,0.427,-88.654,3.274,38.079
2025-11-13 23:09:53.315,-0.021,-1.004,0.073,-0.244,-0.305,0.244,-88.654,3.274,38.084
2025-11-13 23:09:53.456,-0.021,-1.003,0.07,-0.305,-0.244,0.305,-88.66,3.274,38.084
2025-11-13 23:09:53.456,-0.021,-1.003,0.072,-0.305,-0.244,0.427,-88.66,3.279,38.09
2025-11-13 23:09:53.456,-0.02,-1.002,0.072,-0.244,-0.244,0.305,-88.66,3.274,38.09
2025-11-13 23:09:53.456,-0.021,-1.003,0.071,-0.244,-0.244,0.366,-88.66,3.274,38.095
2025-11-13 23:09:53.456,-0.021,-1.002,0.072,-0.305,-0.244,0.366,-88.66,3.279,38.095
2025-11-13 23:09:53.456,-0.021,-1.002,0.072,-0.244,-0.244,0.305,-88.66,3.274,38.101
2025-11-13 23:09:53.456,-0.021,-1.004,0.072,-0.366,-0.183,0.305,-88.665,3.274,38.101
2025-11-13 23:09:53.456,-0.02,-1.002,0.072,-0.244,-0.183,0.305,-88.665,3.274,38.101
2025-11-13 23:09:53.456,-0.021,-1.004,0.072,-0.305,-0.244,0.305,-88.665,3.274,38.106
2025-11-13 23:09:53.456,-0.021,-1.003,0.072,-0.366,-0.244,0.427,-88.665,3.274,38.106
2025-11-13 23:09:53.456,-0.019,-1.002,0.072,-0.244,-0.244,0.305,-88.665,3.274,38.112
2025-11-13 23:09:53.456,-0.021,-1.003,0.071,-0.244,-0.244,0.366,-88.665,3.274,38.112
2025-11-13 23:09:53.596,-0.021,-1.004,0.072,-0.305,-0.305,0.366,-88.665,3.274,38.117
2025-11-13 23:09:53.596,-0.021,-1.003,0.072,-0.244,-0.305,0.366,-88.671,3.274,38.117
2025-11-13 23:09:53.596,-0.022,-1.003,0.072,-0.305,-0.244,0.366,-88.671,3.274,38.123
2025-11-13 23:09:53.596,-0.021,-1.003,0.073,-0.244,-0.305,0.366,-88.671,3.279,38.123
2025-11-13 23:09:53.596,-0.021,-1.003,0.071,-0.183,-0.244,0.305,-88.671,3.274,38.128
2025-11-13 23:09:53.596,-0.021,-1.004,0.072,-0.305,-0.244,0.366,-88.671,3.274,38.128
2025-11-13 23:09:53.596,-0.02,-1.003,0.072,-0.183,-0.244,0.366,-88.671,3.279,38.134
2025-11-13 23:09:53.596,-0.021,-1.001,0.072,-0.244,-0.244,0.305,-88.671,3.274,38.134
2025-11-13 23:09:53.596,-0.021,-1.003,0.072,-0.305,-0.244,0.366,-88.671,3.274,38.134
2025-11-13 23:09:53.596,-0.021,-1.003,0.072,-0.244,-0.244,0.305,-88.671,3.274,38.139
2025-11-13 23:09:53.596,-0.021,-1.004,0.072,-0.305,-0.244,0.366,-88.671,3.274,38.139
2025-11-13 23:09:53.596,-0.02,-1.002,0.073,-0.244,-0.244,0.366,-88.671,3.279,38.145
2025-11-13 23:09:53.615,-0.021,-1.003,0.072,-0.305,-0.183,0.244,-88.676,3.274,38.145
2025-11-13 23:09:53.615,-0.022,-1.003,0.07,-0.305,-0.244,0.305,-88.676,3.274,38.15
2025-11-13 23:09:53.615,-0.02,-1.004,0.072,-0.244,-0.183,0.305,-88.676,3.274,38.15
2025-11-13 23:09:53.615,-0.021,-1.001,0.071,-0.183,-0.305,0.244,-88.676,3.274,38.15
2025-11-13 23:09:53.746,-0.021,-1.003,0.072,-0.305,-0.244,0.366,-88.676,3.274,38.156
2025-11-13 23:09:53.746,-0.02,-1.003,0.072,-0.183,-0.244,0.366,-88.676,3.274,38.156
2025-11-13 23:09:53.746,-0.021,-1.002,0.071,-0.244,-0.244,0.305,-88.676,3.274,38.161
2025-11-13 23:09:53.746,-0.021,-1.002,0.072,-0.305,-0.244,0.427,-88.676,3.274,38.161
2025-11-13 23:09:53.746,-0.02,-1.0,0.072,-0.244,-0.183,0.244,-88.676,3.274,38.167
2025-11-13 23:09:53.746,-0.021,-1.002,0.072,-0.305,-0.244,0.305,-88.676,3.274,38.167
2025-11-13 23:09:53.746,-0.021,-1.001,0.072,-0.305,-0.183,0.366,-88.682,3.274,38.167
2025-11-13 23:09:53.746,-0.02,-1.002,0.071,-0.244,-0.244,0.244,-88.682,3.274,38.172
2025-11-13 23:09:53.746,-0.02,-1.001,0.071,-0.366,-0.244,0.366,-88.682,3.274,38.172
2025-11-13 23:09:53.746,-0.021,-1.001,0.072,-0.244,-0.244,0.305,-88.682,3.274,38.177
2025-11-13 23:09:53.746,-0.021,-1.001,0.072,-0.183,-0.305,0.305,-88.682,3.274,38.177
2025-11-13 23:09:53.746,-0.021,-1.001,0.073,-0.366,-0.183,0.366,-88.682,3.274,38.183
2025-11-13 23:09:53.773,-0.02,-1.002,0.072,-0.183,-0.244,0.244,-88.682,3.274,38.183
2025-11-13 23:09:53.773,-0.021,-1.003,0.071,-0.244,-0.244,0.366,-88.682,3.274,38.188
2025-11-13 23:09:53.773,-0.02,-1.003,0.073,-0.366,-0.183,0.366,-88.687,3.274,38.188
2025-11-13 23:09:53.773,-0.02,-1.002,0.072,-0.244,-0.244,0.305,-88.687,3.274,38.188
2025-11-13 23:09:53.900,-0.021,-1.003,0.072,-0.244,-0.244,0.366,-88.687,3.274,38.194
2025-11-13 23:09:53.900,-0.02,-1.003,0.071,-0.305,-0.183,0.427,-88.687,3.274,38.194
2025-11-13 23:09:53.900,-0.02,-1.003,0.071,-0.183,-0.244,0.244,-88.687,3.274,38.199
2025-11-13 23:09:53.900,-0.021,-1.004,0.072,-0.305,-0.183,0.366,-88.687,3.274,38.199
2025-11-13 23:09:53.900,-0.019,-1.004,0.073,-0.183,-0.183,0.366,-88.687,3.274,38.199
2025-11-13 23:09:53.900,-0.021,-1.003,0.071,-0.244,-0.244,0.244,-88.687,3.268,38.205
2025-11-13 23:09:53.900,-0.022,-1.002,0.073,-0.366,-0.244,0.488,-88.687,3.274,38.205
2025-11-13 23:09:53.900,-0.02,-1.002,0.072,-0.183,-0.305,0.305,-88.687,3.274,38.21
2025-11-13 23:09:53.900,-0.021,-1.003,0.072,-0.244,-0.305,0.366,-88.687,3.274,38.21
2025-11-13 23:09:53.900,-0.021,-1.003,0.072,-0.305,-0.244,0.427,-88.687,3.274,38.216
2025-11-13 23:09:53.900,-0.02,-1.003,0.072,-0.244,-0.244,0.244,-88.693,3.274,38.216
2025-11-13 23:09:53.900,-0.021,-1.003,0.072,-0.305,-0.183,0.427,-88.693,3.274,38.221
2025-11-13 23:09:54.053,-0.02,-1.002,0.072,-0.244,-0.305,0.427,-88.693,3.274,38.221
2025-11-13 23:09:54.054,-0.021,-1.003,0.07,-0.244,-0.244,0.305,-88.693,3.274,38.227
2025-11-13 23:09:54.054,-0.021,-1.004,0.071,-0.305,-0.183,0.427,-88.693,3.274,38.227
2025-11-13 23:09:54.054,-0.02,-1.002,0.072,-0.244,-0.183,0.305,-88.693,3.274,38.227
2025-11-13 23:09:54.054,-0.021,-1.003,0.071,-0.244,-0.244,0.305,-88.693,3.274,38.232
2025-11-13 23:09:54.054,-0.021,-1.003,0.072,-0.305,-0.244,0.427,-88.693,3.274,38.232
2025-11-13 23:09:54.054,-0.02,-1.002,0.072,-0.183,-0.305,0.305,-88.693,3.274,38.238
2025-11-13 23:09:54.054,-0.022,-1.003,0.072,-0.244,-0.305,0.427,-88.693,3.274,38.238
2025-11-13 23:09:54.054,-0.021,-1.002,0.072,-0.183,-0.366,0.305,-88.693,3.274,38.243
2025-11-13 23:09:54.054,-0.022,-1.003,0.072,-0.305,-0.244,0.427,-88.693,3.274,38.249
2025-11-13 23:09:54.054,-0.02,-1.003,0.073,-0.244,-0.183,0.366,-88.698,3.274,38.249
2025-11-13 23:09:54.054,-0.021,-1.003,0.072,-0.244,-0.244,0.244,-88.698,3.274,38.249
2025-11-13 23:09:54.073,-0.021,-1.004,0.071,-0.305,-0.305,0.427,-88.698,3.274,38.254
2025-11-13 23:09:54.073,-0.02,-1.002,0.072,-0.183,-0.305,0.305,-88.698,3.274,38.254
2025-11-13 23:09:54.073,-0.021,-1.003,0.071,-0.183,-0.305,0.366,-88.698,3.274,38.26
2025-11-13 23:09:54.073,-0.021,-1.002,0.073,-0.305,-0.183,0.427,-88.698,3.274,38.26
2025-11-13 23:09:54.174,-0.019,-1.002,0.073,-0.244,-0.244,0.305,-88.698,3.274,38.265
2025-11-13 23:09:54.174,-0.022,-1.003,0.071,-0.244,-0.305,0.366,-88.698,3.274,38.265
2025-11-13 23:09:54.174,-0.019,-1.002,0.072,-0.366,-0.244,0.427,-88.698,3.274,38.271
2025-11-13 23:09:54.175,-0.02,-1.002,0.071,-0.183,-0.244,0.244,-88.698,3.274,38.271
2025-11-13 23:09:54.175,-0.022,-1.003,0.071,-0.366,-0.244,0.427,-88.698,3.274,38.276
2025-11-13 23:09:54.175,-0.02,-1.002,0.072,-0.305,-0.244,0.366,-88.704,3.274,38.276
2025-11-13 23:09:54.175,-0.021,-1.005,0.071,-0.244,-0.244,0.305,-88.704,3.274,38.282
2025-11-13 23:09:54.175,-0.021,-1.004,0.072,-0.366,-0.183,0.488,-88.704,3.279,38.282
2025-11-13 23:09:54.189,-0.019,-1.002,0.072,-0.244,-0.244,0.305,-88.704,3.279,38.282
2025-11-13 23:09:54.189,-0.022,-1.002,0.071,-0.305,-0.183,0.244,-88.704,3.274,38.287
2025-11-13 23:09:54.189,-0.021,-1.005,0.073,-0.366,-0.244,0.366,-88.704,3.274,38.287
2025-11-13 23:09:54.189,-0.02,-1.003,0.073,-0.122,-0.305,0.183,-88.704,3.274,38.293
2025-11-13 23:09:54.316,-0.021,-1.003,0.07,-0.305,-0.244,0.366,-88.704,3.274,38.293
2025-11-13 23:09:54.316,-0.02,-1.002,0.073,-0.305,-0.183,0.488,-88.704,3.274,38.298
2025-11-13 23:09:54.316,-0.021,-1.004,0.073,-0.122,-0.244,0.244,-88.704,3.274,38.298
2025-11-13 23:09:54.316,-0.021,-1.005,0.073,-0.366,-0.244,0.427,-88.709,3.274,38.298
2025-11-13 23:09:54.316,-0.02,-1.002,0.072,-0.244,-0.244,0.366,-88.709,3.274,38.304
2025-11-13 23:09:54.316,-0.021,-1.003,0.07,-0.183,-0.244,0.244,-88.709,3.274,38.304
2025-11-13 23:09:54.316,-0.021,-1.003,0.07,-0.305,-0.244,0.427,-88.709,3.274,38.309
2025-11-13 23:09:54.316,-0.019,-1.003,0.072,-0.183,-0.305,0.244,-88.709,3.274,38.309
2025-11-13 23:09:54.316,-0.022,-1.003,0.071,-0.305,-0.305,0.305,-88.709,3.274,38.315
2025-11-13 23:09:54.316,-0.021,-1.003,0.073,-0.305,-0.244,0.488,-88.709,3.274,38.315
2025-11-13 23:09:54.316,-0.02,-1.001,0.071,-0.122,-0.244,0.183,-88.709,3.274,38.32
2025-11-13 23:09:54.316,-0.022,-1.003,0.072,-0.305,-0.244,0.427,-88.709,3.274,38.32
2025-11-13 23:09:54.336,-0.019,-1.003,0.073,-0.305,-0.244,0.427,-88.709,3.274,38.326
2025-11-13 23:09:54.336,-0.021,-1.003,0.071,-0.122,-0.244,0.244,-88.709,3.274,38.326
2025-11-13 23:09:54.336,-0.021,-1.005,0.072,-0.366,-0.183,0.488,-88.709,3.274,38.331
2025-11-13 23:09:54.336,-0.02,-1.003,0.073,-0.244,-0.244,0.366,-88.709,3.274,38.331
2025-11-13 23:09:54.472,-0.021,-1.003,0.072,-0.244,-0.244,0.305,-88.709,3.274,38.331
2025-11-13 23:09:54.473,-0.021,-1.003,0.072,-0.427,-0.244,0.427,-88.715,3.274,38.337
2025-11-13 23:09:54.473,-0.019,-1.003,0.072,-0.183,-0.244,0.244,-88.715,3.274,38.337
2025-11-13 23:09:54.473,-0.022,-1.004,0.072,-0.305,-0.244,0.366,-88.715,3.274,38.342
2025-11-13 23:09:54.473,-0.02,-1.003,0.072,-0.366,-0.183,0.488,-88.715,3.279,38.342
2025-11-13 23:09:54.473,-0.021,-1.003,0.071,-0.183,-0.244,0.244,-88.715,3.279,38.348
2025-11-13 23:09:54.473,-0.022,-1.006,0.07,-0.305,-0.183,0.427,-88.715,3.279,38.348
2025-11-13 23:09:54.473,-0.019,-1.003,0.073,-0.305,-0.244,0.427,-88.715,3.279,38.348
2025-11-13 23:09:54.473,-0.02,-1.003,0.072,-0.183,-0.366,0.305,-88.715,3.279,38.353
2025-11-13 23:09:54.473,-0.021,-1.004,0.072,-0.305,-0.244,0.427,-88.715,3.279,38.359
2025-11-13 23:09:54.473,-0.019,-1.002,0.072,-0.183,-0.183,0.305,-88.715,3.279,38.359
2025-11-13 23:09:54.473,-0.021,-1.003,0.07,-0.183,-0.244,0.305,-88.715,3.279,38.359
2025-11-13 23:09:54.492,-0.02,-1.002,0.072,-0.366,-0.183,0.427,-88.72,3.279,38.364
2025-11-13 23:09:54.492,-0.02,-1.003,0.071,-0.183,-0.244,0.244,-88.72,3.279,38.364
2025-11-13 23:09:54.492,-0.022,-1.005,0.072,-0.366,-0.244,0.427,-88.72,3.279,38.37
2025-11-13 23:09:54.492,-0.02,-1.004,0.072,-0.305,-0.183,0.488,-88.72,3.279,38.37
2025-11-13 23:09:54.626,-0.02,-1.002,0.07,-0.122,-0.305,0.305,-88.72,3.279,38.37
2025-11-13 23:09:54.627,-0.023,-1.004,0.071,-0.305,-0.244,0.488,-88.72,3.279,38.375
2025-11-13 23:09:54.627,-0.02,-1.004,0.071,-0.244,-0.244,0.366,-88.72,3.279,38.375
2025-11-13 23:09:54.627,-0.021,-1.003,0.07,-0.244,-0.305,0.305,-88.72,3.279,38.381
2025-11-13 23:09:54.627,-0.021,-1.001,0.072,-0.305,-0.305,0.427,-88.72,3.279,38.381
2025-11-13 23:09:54.627,-0.019,-1.0,0.073,-0.183,-0.305,0.305,-88.72,3.279,38.386
2025-11-13 23:09:54.627,-0.022,-1.003,0.071,-0.244,-0.244,0.305,-88.72,3.279,38.392
2025-11-13 23:09:54.627,-0.02,-1.002,0.072,-0.366,-0.244,0.488,-88.72,3.279,38.392
2025-11-13 23:09:54.627,-0.019,-1.002,0.072,-0.183,-0.244,0.305,-88.72,3.279,38.392
2025-11-13 23:09:54.627,-0.022,-1.002,0.071,-0.305,-0.183,0.366,-88.72,3.279,38.397
2025-11-13 23:09:54.627,-0.02,-1.003,0.073,-0.366,-0.244,0.427,-88.726,3.279,38.397
2025-11-13 23:09:54.627,-0.021,-1.004,0.071,-0.183,-0.305,0.305,-88.726,3.279,38.403
2025-11-13 23:09:54.674,-0.022,-1.004,0.071,-0.366,-0.244,0.488,-88.726,3.285,38.403
2025-11-13 23:09:54.674,-0.019,-1.001,0.072,-0.183,-0.244,0.366,-88.726,3.285,38.408
2025-11-13 23:09:54.674,-0.021,-1.004,0.071,-0.183,-0.244,0.305,-88.726,3.279,38.408
2025-11-13 23:09:54.674,-0.021,-1.003,0.072,-0.427,-0.183,0.427,-88.726,3.285,38.408
2025-11-13 23:09:54.775,-0.02,-1.002,0.072,-0.183,-0.244,0.183,-88.726,3.279,38.414
2025-11-13 23:09:54.775,-0.022,-1.003,0.072,-0.244,-0.183,0.305,-88.726,3.279,38.414
2025-11-13 23:09:54.775,-0.021,-1.003,0.073,-0.366,-0.183,0.427,-88.726,3.279,38.419
2025-11-13 23:09:54.776,-0.02,-1.004,0.071,-0.183,-0.244,0.183,-88.726,3.279,38.419
2025-11-13 23:09:54.776,-0.022,-1.003,0.071,-0.305,-0.183,0.366,-88.726,3.279,38.419
2025-11-13 23:09:54.776,-0.019,-1.003,0.072,-0.305,-0.244,0.305,-88.731,3.279,38.425
2025-11-13 23:09:54.776,-0.021,-1.003,0.071,-0.183,-0.244,0.183,-88.726,3.279,38.425
2025-11-13 23:09:54.776,-0.024,-0.999,0.071,-0.305,-0.305,0.427,-88.731,3.279,38.43
2025-11-13 23:09:54.785,-0.019,-1.001,0.072,-0.244,-0.244,0.427,-88.731,3.279,38.43
2025-11-13 23:09:54.785,-0.018,-1.015,0.074,-0.183,-0.244,0.427,-88.731,3.279,38.436
2025-11-13 23:09:54.785,-0.025,-0.996,0.07,-0.183,-0.305,0.305,-88.731,3.279,38.436
2025-11-13 23:09:54.785,-0.02,-0.999,0.07,-0.366,-0.244,0.488,-88.731,3.279,38.441
2025-11-13 23:09:54.820,-0.019,-1.01,0.074,-0.427,-0.244,0.549,-88.731,3.285,38.441
2025-11-13 23:09:54.820,-0.022,-0.996,0.071,0.0,-0.305,0.061,-88.731,3.279,38.447
2025-11-13 23:09:54.820,-0.021,-1.006,0.071,-0.366,-0.244,0.427,-88.731,3.279,38.447
2025-11-13 23:09:54.820,-0.022,-1.002,0.072,-0.427,-0.244,0.488,-88.731,3.285,38.452
2025-11-13 23:09:54.921,-0.017,-1.008,0.073,-0.183,-0.244,0.366,-88.731,3.285,38.452
2025-11-13 23:09:54.921,-0.021,-1.0,0.074,-0.122,-0.366,0.061,-88.731,3.279,38.458
2025-11-13 23:09:54.921,-0.026,-1.002,0.068,-0.488,-0.183,0.671,-88.737,3.285,38.458
2025-11-13 23:09:54.921,-0.019,-1.005,0.076,-0.366,-0.244,0.488,-88.737,3.285,38.463
2025-11-13 23:09:54.921,-0.021,-1.002,0.07,0.122,-0.366,0.0,-88.731,3.279,38.463
2025-11-13 23:09:54.921,-0.023,-1.004,0.071,-0.488,-0.183,0.732,-88.737,3.285,38.469
2025-11-13 23:09:54.921,-0.019,-1.0,0.072,-0.122,-0.305,0.183,-88.731,3.285,38.469
2025-11-13 23:09:54.921,-0.023,-1.001,0.07,-0.305,-0.244,0.366,-88.737,3.285,38.474
2025-11-13 23:09:54.936,-0.02,-1.002,0.074,-0.366,-0.183,0.427,-88.737,3.285,38.474
2025-11-13 23:09:54.936,-0.02,-1.003,0.072,-0.122,-0.305,0.122,-88.737,3.285,38.48
2025-11-13 23:09:54.936,-0.022,-1.007,0.071,-0.427,-0.244,0.61,-88.737,3.285,38.48
2025-11-13 23:09:54.936,-0.019,-1.005,0.073,-0.244,-0.244,0.366,-88.737,3.285,38.48
2025-11-13 23:09:55.076,-0.024,-0.997,0.07,-0.122,-0.244,0.183,-88.737,3.285,38.485
2025-11-13 23:09:55.076,-0.021,-1.0,0.071,-0.366,-0.183,0.427,-88.737,3.285,38.485
2025-11-13 23:09:55.076,-0.02,-1.005,0.073,-0.244,-0.244,0.244,-88.737,3.285,38.491
2025-11-13 23:09:55.076,-0.023,-1.004,0.071,-0.244,-0.244,0.244,-88.737,3.285,38.491
2025-11-13 23:09:55.076,-0.021,-1.0,0.072,-0.366,-0.244,0.366,-88.737,3.285,38.496
2025-11-13 23:09:55.076,-0.02,-1.002,0.071,-0.183,-0.305,0.183,-88.737,3.279,38.496
2025-11-13 23:09:55.076,-0.021,-1.01,0.072,-0.305,-0.244,0.427,-88.742,3.285,38.502
2025-11-13 23:09:55.076,-0.019,-1.007,0.072,-0.305,-0.244,0.427,-88.742,3.285,38.502
2025-11-13 23:09:55.076,-0.022,-0.999,0.071,0.0,-0.305,0.183,-88.737,3.279,38.507
2025-11-13 23:09:55.076,-0.022,-0.996,0.072,-0.427,-0.244,0.427,-88.742,3.285,38.507
2025-11-13 23:09:55.076,-0.019,-1.003,0.073,-0.305,-0.244,0.305,-88.742,3.285,38.513
2025-11-13 23:09:55.076,-0.023,-1.008,0.071,-0.183,-0.244,0.244,-88.742,3.279,38.513
2025-11-13 23:09:55.085,-0.021,-1.005,0.073,-0.366,-0.244,0.488,-88.742,3.285,38.518
2025-11-13 23:09:55.085,-0.02,-0.999,0.072,-0.183,-0.305,0.122,-88.742,3.279,38.518
2025-11-13 23:09:55.085,-0.023,-1.0,0.071,-0.305,-0.122,0.305,-88.742,3.279,38.518
2025-11-13 23:09:55.085,-0.02,-1.005,0.072,-0.427,-0.183,0.488,-88.742,3.279,38.524
2025-11-13 23:09:55.225,-0.021,-1.007,0.071,-0.122,-0.305,0.183,-88.742,3.279,38.524
2025-11-13 23:09:55.225,-0.022,-1.003,0.071,-0.366,-0.244,0.488,-88.742,3.279,38.529
2025-11-13 23:09:55.225,-0.019,-1.0,0.073,-0.305,-0.183,0.366,-88.748,3.279,38.529
2025-11-13 23:09:55.225,-0.022,-1.002,0.071,-0.183,-0.244,0.244,-88.748,3.279,38.529
2025-11-13 23:09:55.225,-0.022,-1.005,0.072,-0.427,-0.183,0.488,-88.748,3.285,38.535
2025-11-13 23:09:55.225,-0.02,-1.004,0.072,-0.183,-0.244,0.244,-88.748,3.279,38.535
2025-11-13 23:09:55.225,-0.023,-1.001,0.071,-0.183,-0.244,0.305,-88.748,3.279,38.54
2025-11-13 23:09:55.225,-0.02,-1.001,0.072,-0.427,-0.122,0.427,-88.748,3.279,38.54
2025-11-13 23:09:55.235,-0.02,-1.002,0.072,-0.183,-0.305,0.183,-88.748,3.279,38.546
2025-11-13 23:09:55.235,-0.022,-1.006,0.071,-0.366,-0.244,0.366,-88.748,3.279,38.546
2025-11-13 23:09:55.235,-0.02,-1.005,0.073,-0.366,-0.244,0.427,-88.748,3.279,38.546
2025-11-13 23:09:55.235,-0.021,-1.002,0.071,-0.122,-0.244,0.183,-88.748,3.279,38.551
2025-11-13 23:09:55.270,-0.023,-1.002,0.071,-0.366,-0.244,0.488,-88.753,3.279,38.551
2025-11-13 23:09:55.270,-0.02,-1.003,0.073,-0.305,-0.305,0.305,-88.753,3.279,38.557
2025-11-13 23:09:55.270,-0.022,-1.004,0.071,-0.183,-0.244,0.183,-88.753,3.279,38.557
2025-11-13 23:09:55.270,-0.021,-1.004,0.071,-0.427,-0.244,0.488,-88.753,3.279,38.562
2025-11-13 23:09:55.376,-0.019,-1.003,0.072,-0.183,-0.305,0.244,-88.753,3.279,38.562
2025-11-13 23:09:55.376,-0.022,-1.003,0.07,-0.244,-0.244,0.305,-88.753,3.279,38.568
2025-11-13 23:09:55.376,-0.02,-1.002,0.071,-0.122,-0.305,0.183,-88.753,3.279,38.568
2025-11-13 23:09:55.376,-0.023,-1.003,0.071,-0.366,-0.183,0.366,-88.753,3.279,38.573
2025-11-13 23:09:55.376,-0.02,-1.003,0.073,-0.244,-0.183,0.366,-88.753,3.279,38.573
2025-11-13 23:09:55.376,-0.021,-1.003,0.071,-0.122,-0.244,0.122,-88.753,3.279,38.573
2025-11-13 23:09:55.376,-0.022,-1.005,0.072,-0.366,-0.244,0.427,-88.753,3.279,38.578
2025-11-13 23:09:55.376,-0.019,-1.002,0.072,-0.244,-0.244,0.244,-88.753,3.279,38.578
2025-11-13 23:09:55.385,-0.022,-1.003,0.071,-0.183,-0.244,0.244,-88.753,3.274,38.584
2025-11-13 23:09:55.385,-0.021,-1.002,0.072,-0.427,-0.244,0.488,-88.753,3.274,38.584
2025-11-13 23:09:55.385,-0.019,-1.001,0.072,-0.183,-0.366,0.183,-88.753,3.274,38.589
2025-11-13 23:09:55.385,-0.023,-1.004,0.069,-0.244,-0.244,0.366,-88.753,3.274,38.589
2025-11-13 23:09:55.425,-0.019,-1.004,0.072,-0.427,-0.244,0.488,-88.753,3.274,38.595
2025-11-13 23:09:55.425,-0.02,-1.002,0.072,-0.122,-0.305,0.183,-88.759,3.274,38.595
2025-11-13 23:09:55.425,-0.021,-1.002,0.07,-0.366,-0.244,0.488,-88.759,3.274,38.6
2025-11-13 23:09:55.425,-0.019,-1.0,0.072,-0.244,-0.244,0.366,-88.759,3.279,38.6
2025-11-13 23:09:55.526,-0.021,-1.003,0.071,-0.183,-0.305,0.244,-88.759,3.279,38.606
2025-11-13 23:09:55.527,-0.022,-1.006,0.071,-0.366,-0.244,0.488,-88.759,3.279,38.606
2025-11-13 23:09:55.527,-0.019,-1.003,0.073,-0.244,-0.366,0.244,-88.759,3.279,38.611
2025-11-13 23:09:55.527,-0.022,-1.003,0.07,-0.244,-0.244,0.305,-88.759,3.274,38.611
2025-11-13 23:09:55.527,-0.021,-1.003,0.071,-0.488,-0.183,0.427,-88.759,3.279,38.617
2025-11-13 23:09:55.527,-0.02,-1.004,0.073,-0.122,-0.244,0.183,-88.759,3.274,38.617
2025-11-13 23:09:55.527,-0.023,-1.003,0.071,-0.244,-0.305,0.366,-88.759,3.274,38.622
2025-11-13 23:09:55.527,-0.02,-1.002,0.073,-0.366,-0.244,0.427,-88.759,3.274,38.622
2025-11-13 23:09:55.535,-0.021,-1.002,0.072,-0.183,-0.244,0.183,-88.759,3.274,38.628
2025-11-13 23:09:55.536,-0.021,-1.004,0.071,-0.305,-0.183,0.488,-88.759,3.274,38.628
2025-11-13 23:09:55.536,-0.019,-1.002,0.074,-0.244,-0.183,0.366,-88.764,3.279,38.628
2025-11-13 23:09:55.536,-0.021,-1.002,0.071,-0.183,-0.244,0.183,-88.759,3.274,38.633
2025-11-13 23:09:55.666,-0.022,-1.001,0.071,-0.488,-0.244,0.488,-88.764,3.274,38.633
2025-11-13 23:09:55.666,-0.019,-1.001,0.071,-0.183,-0.305,0.305,-88.764,3.274,38.639
2025-11-13 23:09:55.666,-0.021,-1.005,0.07,-0.244,-0.183,0.305,-88.764,3.274,38.639
2025-11-13 23:09:55.666,-0.02,-1.004,0.072,-0.366,-0.183,0.549,-88.764,3.279,38.644
2025-11-13 23:09:55.666,-0.02,-1.001,0.071,-0.122,-0.244,0.244,-88.764,3.279,38.644
2025-11-13 23:09:55.666,-0.021,-1.003,0.07,-0.366,-0.183,0.366,-88.764,3.279,38.644
2025-11-13 23:09:55.666,-0.019,-1.002,0.073,-0.366,-0.244,0.427,-88.764,3.279,38.65
2025-11-13 23:09:55.666,-0.021,-1.003,0.071,-0.183,-0.305,0.244,-88.764,3.279,38.65
2025-11-13 23:09:55.666,-0.022,-1.003,0.071,-0.366,-0.305,0.488,-88.764,3.279,38.655
2025-11-13 23:09:55.666,-0.019,-1.002,0.072,-0.244,-0.244,0.366,-88.764,3.279,38.655
2025-11-13 23:09:55.666,-0.021,-1.004,0.071,-0.244,-0.244,0.244,-88.77,3.279,38.661
2025-11-13 23:09:55.666,-0.021,-1.003,0.071,-0.488,-0.183,0.549,-88.77,3.279,38.661
2025-11-13 23:09:55.716,-0.02,-1.0,0.072,-0.183,-0.305,0.183,-88.77,3.279,38.666
2025-11-13 23:09:55.716,-0.022,-1.001,0.07,-0.305,-0.305,0.305,-88.77,3.279,38.666
2025-11-13 23:09:55.716,-0.02,-1.002,0.072,-0.366,-0.244,0.366,-88.77,3.279,38.672
2025-11-13 23:09:55.716,-0.02,-1.003,0.071,-0.183,-0.305,0.183,-88.77,3.279,38.672
2025-11-13 23:09:55.821,-0.022,-1.004,0.072,-0.366,-0.244,0.427,-88.77,3.274,38.677
2025-11-13 23:09:55.821,-0.019,-1.002,0.073,-0.305,-0.244,0.366,-88.77,3.279,38.677
2025-11-13 23:09:55.821,-0.021,-1.003,0.071,-0.183,-0.305,0.244,-88.77,3.274,38.683
2025-11-13 23:09:55.821,-0.022,-1.003,0.071,-0.427,-0.244,0.427,-88.775,3.274,38.683
2025-11-13 23:09:55.821,-0.019,-1.003,0.072,-0.244,-0.244,0.244,-88.775,3.274,38.688
2025-11-13 23:09:55.821,-0.023,-1.004,0.07,-0.244,-0.244,0.183,-88.775,3.274,38.688
2025-11-13 23:09:55.821,-0.021,-1.002,0.072,-0.427,-0.183,0.488,-88.775,3.274,38.694
2025-11-13 23:09:55.821,-0.019,-1.0,0.072,-0.122,-0.305,0.183,-88.775,3.274,38.694
2025-11-13 23:09:55.837,-0.023,-1.0,0.07,-0.305,-0.244,0.366,-88.775,3.274,38.699
2025-11-13 23:09:55.837,-0.018,-1.002,0.073,-0.305,-0.183,0.427,-88.775,3.274,38.699
2025-11-13 23:09:55.837,-0.02,-1.005,0.072,-0.122,-0.244,0.244,-88.775,3.274,38.699
2025-11-13 23:09:55.837,-0.022,-1.002,0.071,-0.305,-0.183,0.549,-88.775,3.274,38.705
2025-11-13 23:09:55.966,-0.019,-0.997,0.072,-0.183,-0.244,0.305,-88.775,3.274,38.705
2025-11-13 23:09:55.966,-0.022,-0.999,0.07,-0.244,-0.244,0.244,-88.775,3.274,38.71
2025-11-13 23:09:55.967,-0.021,-1.004,0.071,-0.488,-0.122,0.427,-88.775,3.274,38.71
2025-11-13 23:09:55.967,-0.019,-1.004,0.072,-0.183,-0.244,0.244,-88.775,3.274,38.71
2025-11-13 23:09:55.967,-0.022,-1.002,0.071,-0.305,-0.183,0.305,-88.775,3.274,38.716
2025-11-13 23:09:55.967,-0.021,-1.0,0.072,-0.427,-0.244,0.488,-88.781,3.274,38.716
2025-11-13 23:09:55.967,-0.021,-1.003,0.072,-0.122,-0.305,0.183,-88.781,3.274,38.721
2025-11-13 23:09:55.967,-0.022,-1.008,0.072,-0.366,-0.122,0.427,-88.781,3.274,38.721
2025-11-13 23:09:55.967,-0.019,-1.004,0.072,-0.305,-0.183,0.366,-88.781,3.274,38.721
2025-11-13 23:09:55.967,-0.022,-0.999,0.069,-0.122,-0.244,0.244,-88.781,3.274,38.727
2025-11-13 23:09:55.967,-0.023,-1.0,0.07,-0.427,-0.183,0.488,-88.781,3.274,38.727
2025-11-13 23:09:55.967,-0.019,-1.008,0.074,-0.305,-0.244,0.305,-88.781,3.274,38.732
2025-11-13 23:09:55.985,-0.022,-1.008,0.07,-0.183,-0.305,0.244,-88.781,3.274,38.732
2025-11-13 23:09:55.986,-0.02,-0.996,0.071,-0.305,-0.183,0.366,-88.781,3.274,38.732
2025-11-13 23:09:55.986,-0.02,-1.003,0.073,-0.244,-0.183,0.244,-88.781,3.274,38.738
2025-11-13 23:09:55.986,-0.022,-1.009,0.073,-0.366,-0.244,0.366,-88.781,3.274,38.738
2025-11-13 23:09:56.120,-0.019,-1.003,0.072,-0.244,-0.244,0.305,-88.781,3.274,38.743
2025-11-13 23:09:56.120,-0.021,-0.997,0.071,-0.122,-0.366,0.122,-88.781,3.268,38.743
2025-11-13 23:09:56.120,-0.021,-1.005,0.071,-0.549,-0.183,0.61,-88.786,3.274,38.749
2025-11-13 23:09:56.120,-0.019,-1.009,0.076,-0.183,-0.305,0.183,-88.786,3.274,38.749
2025-11-13 23:09:56.120,-0.023,-1.005,0.07,-0.122,-0.305,0.183,-88.781,3.268,38.754
2025-11-13 23:09:56.120,-0.021,-1.0,0.071,-0.366,-0.183,0.549,-88.786,3.274,38.754
2025-11-13 23:09:56.120,-0.019,-1.002,0.072,-0.183,-0.244,0.244,-88.786,3.268,38.76
2025-11-13 23:09:56.120,-0.022,-1.006,0.07,-0.366,-0.183,0.427,-88.786,3.274,38.76
2025-11-13 23:09:56.120,-0.021,-0.999,0.072,-0.244,-0.244,0.427,-88.786,3.274,38.76
2025-11-13 23:09:56.120,-0.019,-1.004,0.072,-0.305,-0.183,0.366,-88.786,3.274,38.765
2025-11-13 23:09:56.120,-0.023,-1.008,0.073,-0.183,-0.305,0.366,-88.786,3.274,38.765
2025-11-13 23:09:56.120,-0.019,-1.005,0.069,-0.366,-0.244,0.61,-88.786,3.274,38.771
2025-11-13 23:09:56.137,-0.021,-0.997,0.072,-0.061,-0.366,0.183,-88.786,3.274,38.771
2025-11-13 23:09:56.137,-0.021,-0.998,0.07,-0.61,-0.122,0.488,-88.786,3.274,38.776
2025-11-13 23:09:56.137,-0.02,-1.008,0.076,-0.061,-0.305,0.122,-88.786,3.274,38.776
2025-11-13 23:09:56.137,-0.023,-1.009,0.068,-0.305,-0.244,0.305,-88.786,3.274,38.782
2025-11-13 23:09:56.282,-0.02,-1.002,0.073,-0.305,-0.244,0.427,-88.786,3.274,38.782
2025-11-13 23:09:56.282,-0.021,-0.996,0.071,-0.183,-0.244,0.122,-88.786,3.274,38.787
2025-11-13 23:09:56.282,-0.022,-1.002,0.071,-0.488,-0.244,0.488,-88.792,3.274,38.787
2025-11-13 23:09:56.282,-0.02,-1.01,0.073,-0.427,-0.244,0.427,-88.792,3.274,38.793
2025-11-13 23:09:56.282,-0.021,-1.008,0.071,-0.061,-0.305,0.183,-88.792,3.274,38.793
2025-11-13 23:09:56.282,-0.022,-0.996,0.069,-0.305,-0.244,0.488,-88.792,3.274,38.798
2025-11-13 23:09:56.282,-0.018,-0.996,0.073,-0.244,-0.244,0.366,-88.792,3.274,38.798
2025-11-13 23:09:56.282,-0.022,-1.004,0.072,-0.244,-0.244,0.244,-88.792,3.274,38.798
2025-11-13 23:09:56.282,-0.02,-1.013,0.072,-0.366,-0.183,0.488,-88.792,3.274,38.804
2025-11-13 23:09:56.282,-0.019,-1.007,0.072,-0.122,-0.366,0.305,-88.792,3.274,38.804
2025-11-13 23:09:56.282,-0.023,-0.998,0.069,-0.244,-0.305,0.366,-88.792,3.274,38.809
2025-11-13 23:09:56.282,-0.02,-0.997,0.072,-0.366,-0.244,0.488,-88.792,3.274,38.809
2025-11-13 23:09:56.417,-0.019,-0.998,0.072,-0.183,-0.244,0.122,-88.792,3.274,38.815
2025-11-13 23:09:56.417,-0.023,-1.008,0.071,-0.366,-0.244,0.427,-88.792,3.274,38.815
2025-11-13 23:09:56.417,-0.019,-1.007,0.074,-0.366,-0.244,0.427,-88.792,3.274,38.82
2025-11-13 23:09:56.417,-0.021,-1.004,0.072,-0.061,-0.244,0.183,-88.792,3.274,38.82
2025-11-13 23:09:56.417,-0.022,-1.0,0.071,-0.427,-0.244,0.488,-88.792,3.274,38.826
2025-11-13 23:09:56.417,-0.018,-1.001,0.072,-0.244,-0.305,0.244,-88.792,3.274,38.826
2025-11-13 23:09:56.417,-0.023,-1.004,0.07,-0.244,-0.244,0.305,-88.792,3.274,38.831
2025-11-13 23:09:56.417,-0.021,-1.004,0.072,-0.366,-0.244,0.427,-88.797,3.274,38.831
2025-11-13 23:09:56.417,-0.02,-1.0,0.072,-0.122,-0.305,0.183,-88.792,3.274,38.837
2025-11-13 23:09:56.418,-0.022,-1.0,0.069,-0.305,-0.244,0.427,-88.792,3.274,38.837
2025-11-13 23:09:56.418,-0.02,-1.001,0.073,-0.366,-0.183,0.427,-88.797,3.274,38.842
2025-11-13 23:09:56.418,-0.021,-1.004,0.071,-0.122,-0.305,0.183,-88.792,3.274,38.842
2025-11-13 23:09:56.435,-0.022,-1.004,0.071,-0.305,-0.244,0.427,-88.797,3.274,38.848
2025-11-13 23:09:56.435,-0.02,-0.998,0.073,-0.183,-0.305,0.305,-88.792,3.274,38.848
2025-11-13 23:09:56.435,-0.023,-1.001,0.07,-0.183,-0.305,0.183,-88.792,3.274,38.853
2025-11-13 23:09:56.435,-0.021,-1.004,0.072,-0.366,-0.244,0.488,-88.797,3.274,38.853
2025-11-13 23:09:56.566,-0.018,-1.005,0.073,-0.183,-0.244,0.244,-88.792,3.274,38.859
2025-11-13 23:09:56.566,-0.023,-1.004,0.07,-0.305,-0.244,0.366,-88.797,3.274,38.859
2025-11-13 23:09:56.566,-0.021,-1.0,0.073,-0.427,-0.305,0.488,-88.797,3.274,38.864
2025-11-13 23:09:56.567,-0.021,-1.002,0.072,-0.183,-0.305,0.183,-88.797,3.274,38.864
2025-11-13 23:09:56.567,-0.023,-1.006,0.071,-0.427,-0.244,0.488,-88.797,3.274,38.87
2025-11-13 23:09:56.567,-0.019,-1.003,0.072,-0.305,-0.305,0.366,-88.797,3.274,38.87
2025-11-13 23:09:56.567,-0.023,-1.003,0.07,-0.122,-0.305,0.244,-88.797,3.274,38.875
2025-11-13 23:09:56.567,-0.022,-1.003,0.071,-0.427,-0.305,0.549,-88.797,3.274,38.875
2025-11-13 23:09:56.567,-0.019,-1.001,0.073,-0.122,-0.244,0.244,-88.797,3.274,38.881
2025-11-13 23:09:56.567,-0.023,-1.003,0.071,-0.183,-0.244,0.244,-88.797,3.274,38.881
2025-11-13 23:09:56.567,-0.021,-1.002,0.071,-0.427,-0.183,0.488,-88.797,3.274,38.886
2025-11-13 23:09:56.567,-0.02,-1.002,0.072,-0.061,-0.305,0.183,-88.797,3.274,38.886
2025-11-13 23:09:56.586,-0.023,-1.004,0.07,-0.366,-0.183,0.366,-88.797,3.274,38.892
2025-11-13 23:09:56.586,-0.02,-1.004,0.073,-0.305,-0.244,0.366,-88.797,3.274,38.892
2025-11-13 23:09:56.586,-0.022,-1.004,0.071,-0.122,-0.305,0.122,-88.797,3.274,38.897
2025-11-13 23:09:56.586,-0.019,-1.002,0.072,-0.244,-0.305,0.305,-88.797,3.274,38.897
2025-11-13 23:09:56.722,-0.022,-1.003,0.07,-0.122,-0.244,0.244,-88.797,3.274,38.903
2025-11-13 23:09:56.722,-0.021,-1.003,0.072,-0.427,-0.183,0.549,-88.797,3.274,38.903
2025-11-13 23:09:56.722,-0.02,-1.003,0.072,-0.122,-0.244,0.244,-88.797,3.274,38.903
2025-11-13 23:09:56.722,-0.023,-1.004,0.071,-0.305,-0.244,0.305,-88.797,3.274,38.908
2025-11-13 23:09:56.722,-0.019,-1.003,0.073,-0.427,-0.244,0.427,-88.797,3.274,38.908
2025-11-13 23:09:56.722,-0.021,-1.003,0.072,-0.122,-0.366,0.122,-88.797,3.274,38.914
2025-11-13 23:09:56.722,-0.024,-1.004,0.071,-0.366,-0.244,0.427,-88.797,3.274,38.914
2025-11-13 23:09:56.722,-0.02,-1.003,0.073,-0.244,-0.183,0.366,-88.802,3.274,38.919
2025-11-13 23:09:56.722,-0.022,-1.002,0.071,-0.122,-0.305,0.244,-88.797,3.274,38.919
2025-11-13 23:09:56.722,-0.021,-1.003,0.072,-0.488,-0.244,0.61,-88.802,3.274,38.925
2025-11-13 23:09:56.722,-0.018,-1.002,0.074,-0.122,-0.305,0.244,-88.802,3.274,38.925
2025-11-13 23:09:56.723,-0.023,-1.004,0.07,-0.244,-0.366,0.244,-88.802,3.274,38.93
2025-11-13 23:09:56.766,-0.02,-1.002,0.072,-0.427,-0.244,0.488,-88.802,3.274,38.93
2025-11-13 23:09:56.766,-0.019,-1.002,0.072,-0.061,-0.305,0.183,-88.802,3.274,38.936
2025-11-13 23:09:56.766,-0.024,-1.005,0.07,-0.366,-0.244,0.488,-88.802,3.274,38.936
2025-11-13 23:09:56.766,-0.018,-1.002,0.073,-0.305,-0.305,0.366,-88.802,3.274,38.941
2025-11-13 23:09:56.874,-0.021,-1.002,0.071,-0.122,-0.305,0.122,-88.802,3.274,38.947
2025-11-13 23:09:56.874,-0.022,-1.003,0.071,-0.427,-0.244,0.549,-88.802,3.274,38.947
2025-11-13 23:09:56.874,-0.018,-1.002,0.073,-0.244,-0.244,0.244,-88.802,3.274,38.952
2025-11-13 23:09:56.874,-0.023,-1.004,0.071,-0.244,-0.244,0.183,-88.802,3.274,38.952
2025-11-13 23:09:56.874,-0.021,-1.003,0.072,-0.488,-0.183,0.549,-88.802,3.274,38.952
2025-11-13 23:09:56.874,-0.019,-1.001,0.072,-0.061,-0.305,0.183,-88.802,3.274,38.958
2025-11-13 23:09:56.874,-0.023,-1.004,0.07,-0.366,-0.183,0.366,-88.802,3.274,38.958
2025-11-13 23:09:56.874,-0.019,-1.003,0.072,-0.366,-0.244,0.488,-88.802,3.274,38.963
2025-11-13 23:09:56.885,-0.019,-1.003,0.071,0.0,-0.305,0.122,-88.802,3.274,38.963
2025-11-13 23:09:56.885,-0.023,-1.004,0.07,-0.427,-0.244,0.61,-88.802,3.274,38.969
2025-11-13 23:09:56.885,-0.017,-1.001,0.073,-0.244,-0.244,0.366,-88.802,3.274,38.969
2025-11-13 23:09:56.886,-0.022,-1.003,0.071,-0.183,-0.244,0.183,-88.802,3.274,38.974
2025-11-13 23:09:56.922,-0.021,-1.003,0.072,-0.488,-0.183,0.549,-88.808,3.274,38.974
2025-11-13 23:09:56.922,-0.018,-1.003,0.073,-0.122,-0.305,0.244,-88.808,3.274,38.974
2025-11-13 23:09:56.922,-0.023,-1.004,0.071,-0.183,-0.244,0.366,-88.802,3.274,38.979
2025-11-13 23:09:56.922,-0.021,-1.003,0.073,-0.488,-0.183,0.549,-88.808,3.274,38.979
2025-11-13 23:09:57.024,-0.019,-1.001,0.072,-0.061,-0.305,0.183,-88.808,3.274,38.985
2025-11-13 23:09:57.024,-0.023,-1.004,0.07,-0.366,-0.244,0.488,-88.808,3.274,38.985
2025-11-13 23:09:57.024,-0.018,-1.002,0.073,-0.305,-0.244,0.488,-88.808,3.279,38.99
2025-11-13 23:09:57.024,-0.022,-1.002,0.071,-0.061,-0.305,0.183,-88.808,3.279,38.99
2025-11-13 23:09:57.024,-0.023,-1.003,0.071,-0.427,-0.244,0.61,-88.808,3.279,38.996
2025-11-13 23:09:57.024,-0.018,-1.003,0.074,-0.183,-0.244,0.305,-88.808,3.279,38.996
2025-11-13 23:09:57.024,-0.023,-1.005,0.07,-0.183,-0.305,0.305,-88.808,3.279,39.001
2025-11-13 23:09:57.024,-0.021,-1.004,0.071,-0.488,-0.183,0.61,-88.808,3.279,39.001
2025-11-13 23:09:57.035,-0.019,-1.002,0.073,-0.061,-0.244,0.183,-88.808,3.279,39.007
2025-11-13 23:09:57.035,-0.023,-1.004,0.07,-0.366,-0.244,0.366,-88.808,3.279,39.007
2025-11-13 23:09:57.035,-0.019,-1.002,0.073,-0.488,-0.183,0.488,-88.808,3.279,39.007
2025-11-13 23:09:57.035,-0.02,-1.003,0.072,-0.061,-0.305,0.061,-88.808,3.279,39.012
2025-11-13 23:09:57.167,-0.023,-1.004,0.071,-0.427,-0.183,0.488,-88.808,3.279,39.012
2025-11-13 23:09:57.167,-0.018,-1.002,0.073,-0.244,-0.366,0.305,-88.808,3.279,39.018
2025-11-13 23:09:57.167,-0.022,-1.003,0.07,-0.183,-0.305,0.183,-88.808,3.279,39.018
2025-11-13 23:09:57.167,-0.022,-1.004,0.072,-0.427,-0.122,0.61,-88.808,3.279,39.023
2025-11-13 23:09:57.167,-0.019,-1.003,0.073,-0.122,-0.244,0.244,-88.808,3.279,39.023
2025-11-13 23:09:57.167,-0.022,-1.004,0.07,-0.244,-0.244,0.366,-88.808,3.279,39.029
2025-11-13 23:09:57.167,-0.02,-1.002,0.073,-0.488,-0.244,0.549,-88.813,3.279,39.029
2025-11-13 23:09:57.167,-0.02,-1.003,0.072,-0.061,-0.244,0.122,-88.813,3.279,39.034
2025-11-13 23:09:57.167,-0.022,-1.004,0.069,-0.366,-0.183,0.427,-88.813,3.279,39.034
2025-11-13 23:09:57.167,-0.018,-1.003,0.073,-0.244,-0.244,0.366,-88.813,3.279,39.034
2025-11-13 23:09:57.167,-0.022,-1.004,0.071,0.0,-0.305,0.183,-88.808,3.279,39.04
2025-11-13 23:09:57.167,-0.023,-1.003,0.07,-0.427,-0.244,0.61,-88.808,3.279,39.04
2025-11-13 23:09:57.187,-0.019,-1.002,0.073,-0.122,-0.305,0.244,-88.808,3.279,39.045
2025-11-13 23:09:57.187,-0.023,-1.004,0.07,-0.183,-0.305,0.244,-88.808,3.279,39.045
2025-11-13 23:09:57.187,-0.02,-1.002,0.072,-0.488,-0.244,0.549,-88.808,3.279,39.051
2025-11-13 23:09:57.187,-0.019,-1.002,0.072,-0.061,-0.305,0.122,-88.808,3.279,39.051
2025-11-13 23:09:57.316,-0.023,-1.004,0.07,-0.305,-0.183,0.427,-88.808,3.279,39.056
2025-11-13 23:09:57.317,-0.019,-1.003,0.072,-0.366,-0.244,0.549,-88.808,3.279,39.056
2025-11-13 23:09:57.317,-0.021,-1.003,0.072,-0.122,-0.366,0.122,-88.808,3.279,39.062
2025-11-13 23:09:57.317,-0.023,-1.003,0.07,-0.427,-0.183,0.488,-88.808,3.279,39.062
2025-11-13 23:09:57.317,-0.018,-1.001,0.074,-0.244,-0.305,0.305,-88.813,3.279,39.067
2025-11-13 23:09:57.317,-0.022,-1.004,0.071,-0.183,-0.305,0.244,-88.813,3.279,39.067
2025-11-13 23:09:57.317,-0.021,-1.001,0.072,-0.488,-0.183,0.549,-88.813,3.279,39.073
2025-11-13 23:09:57.317,-0.018,-1.002,0.074,-0.122,-0.244,0.183,-88.813,3.279,39.073
2025-11-13 23:09:57.317,-0.024,-1.004,0.069,-0.305,-0.183,0.305,-88.813,3.279,39.078
2025-11-13 23:09:57.317,-0.019,-1.002,0.073,-0.366,-0.244,0.549,-88.813,3.279,39.078
2025-11-13 23:09:57.317,-0.02,-1.001,0.073,-0.061,-0.305,0.061,-88.813,3.279,39.084
2025-11-13 23:09:57.317,-0.023,-1.003,0.069,-0.427,-0.244,0.427,-88.813,3.279,39.084
2025-11-13 23:09:57.367,-0.018,-1.003,0.073,-0.305,-0.244,0.366,-88.813,3.279,39.084
2025-11-13 23:09:57.367,-0.022,-1.004,0.071,-0.061,-0.305,0.183,-88.813,3.279,39.089
2025-11-13 23:09:57.367,-0.022,-1.003,0.071,-0.427,-0.244,0.671,-88.813,3.279,39.095
2025-11-13 23:09:57.367,-0.018,-1.001,0.073,-0.122,-0.305,0.183,-88.813,3.279,39.095
2025-11-13 23:09:57.468,-0.024,-1.004,0.071,-0.183,-0.305,0.244,-88.813,3.279,39.1
2025-11-13 23:09:57.468,-0.02,-1.003,0.073,-0.488,-0.183,0.549,-88.813,3.279,39.1
2025-11-13 23:09:57.468,-0.019,-1.002,0.072,-0.061,-0.305,0.183,-88.813,3.279,39.106
2025-11-13 23:09:57.469,-0.023,-1.003,0.07,-0.366,-0.244,0.488,-88.813,3.279,39.106
2025-11-13 23:09:57.469,-0.019,-1.001,0.073,-0.366,-0.183,0.488,-88.813,3.285,39.106
2025-11-13 23:09:57.469,-0.021,-1.003,0.071,-0.122,-0.244,0.122,-88.813,3.279,39.111
2025-11-13 23:09:57.469,-0.021,-1.004,0.071,-0.488,-0.244,0.549,-88.813,3.285,39.111
2025-11-13 23:09:57.469,-0.019,-1.002,0.073,-0.183,-0.305,0.244,-88.813,3.279,39.117
2025-11-13 23:09:57.485,-0.023,-1.003,0.069,-0.122,-0.305,0.183,-88.813,3.279,39.117
2025-11-13 23:09:57.485,-0.021,-1.003,0.071,-0.488,-0.244,0.61,-88.819,3.285,39.122
2025-11-13 23:09:57.486,-0.018,-1.002,0.074,-0.061,-0.366,0.122,-88.813,3.279,39.128
2025-11-13 23:09:57.486,-0.022,-1.002,0.069,-0.305,-0.244,0.366,-88.813,3.279,39.128
2025-11-13 23:09:57.620,-0.019,-1.001,0.072,-0.427,-0.183,0.427,-88.819,3.279,39.128
2025-11-13 23:09:57.620,-0.021,-1.003,0.071,-0.061,-0.366,0.122,-88.813,3.279,39.133
2025-11-13 23:09:57.620,-0.023,-1.005,0.071,-0.427,-0.305,0.488,-88.819,3.279,39.139
2025-11-13 23:09:57.620,-0.018,-1.002,0.073,-0.244,-0.244,0.366,-88.819,3.279,39.139
2025-11-13 23:09:57.620,-0.022,-1.003,0.07,-0.061,-0.305,0.122,-88.813,3.279,39.144
2025-11-13 23:09:57.620,-0.022,-1.004,0.071,-0.488,-0.244,0.61,-88.819,3.279,39.144
2025-11-13 23:09:57.620,-0.018,-1.001,0.074,-0.061,-0.366,0.183,-88.813,3.279,39.15
2025-11-13 23:09:57.620,-0.022,-1.002,0.07,-0.244,-0.183,0.305,-88.813,3.279,39.15
2025-11-13 23:09:57.620,-0.02,-1.002,0.073,-0.427,-0.244,0.549,-88.819,3.279,39.15
2025-11-13 23:09:57.620,-0.019,-1.002,0.073,0.0,-0.366,0.122,-88.813,3.279,39.155
2025-11-13 23:09:57.620,-0.024,-1.003,0.07,-0.305,-0.183,0.549,-88.813,3.279,39.161
2025-11-13 23:09:57.621,-0.018,-1.002,0.073,-0.305,-0.244,0.427,-88.813,3.279,39.161
2025-11-13 23:09:57.635,-0.022,-1.004,0.071,0.0,-0.366,0.061,-88.813,3.279,39.166
2025-11-13 23:09:57.635,-0.022,-1.005,0.072,-0.488,-0.244,0.549,-88.813,3.279,39.166
2025-11-13 23:09:57.635,-0.017,-1.002,0.074,-0.183,-0.244,0.244,-88.813,3.279,39.172
2025-11-13 23:09:57.635,-0.022,-1.003,0.07,-0.122,-0.305,0.244,-88.813,3.279,39.172
2025-11-13 23:09:57.670,-0.021,-1.003,0.072,-0.549,-0.244,0.61,-88.819,3.279,39.177
2025-11-13 23:09:57.670,-0.019,-1.002,0.073,0.061,-0.305,0.122,-88.813,3.279,39.177
2025-11-13 23:09:57.670,-0.024,-1.004,0.069,-0.244,-0.305,0.366,-88.813,3.279,39.183
2025-11-13 23:09:57.670,-0.019,-1.002,0.074,-0.427,-0.244,0.488,-88.813,3.279,39.183
2025-11-13 23:09:57.772,-0.021,-1.002,0.072,0.0,-0.305,0.061,-88.813,3.279,39.188
2025-11-13 23:09:57.772,-0.022,-1.003,0.07,-0.427,-0.183,0.61,-88.813,3.279,39.188
2025-11-13 23:09:57.772,-0.018,-1.002,0.074,-0.305,-0.244,0.366,-88.813,3.279,39.194
2025-11-13 23:09:57.772,-0.022,-1.003,0.071,-0.061,-0.305,0.122,-88.813,3.279,39.194
2025-11-13 23:09:57.772,-0.022,-1.002,0.071,-0.549,-0.244,0.61,-88.813,3.279,39.199
2025-11-13 23:09:57.772,-0.018,-1.0,0.074,-0.122,-0.366,0.183,-88.813,3.279,39.199
2025-11-13 23:09:57.772,-0.024,-1.002,0.07,-0.183,-0.305,0.305,-88.813,3.279,39.205
2025-11-13 23:09:57.772,-0.021,-1.001,0.072,-0.488,-0.183,0.549,-88.819,3.279,39.205
2025-11-13 23:09:57.789,-0.02,-1.003,0.072,0.061,-0.305,0.061,-88.813,3.279,39.21
2025-11-13 23:09:57.789,-0.024,-1.004,0.07,-0.366,-0.183,0.366,-88.813,3.279,39.21
2025-11-13 23:09:57.789,-0.018,-1.002,0.074,-0.366,-0.244,0.427,-88.813,3.279,39.21
2025-11-13 23:09:57.789,-0.02,-1.001,0.071,-0.061,-0.366,0.061,-88.813,3.279,39.216
2025-11-13 23:09:57.916,-0.023,-1.001,0.071,-0.488,-0.244,0.671,-88.819,3.279,39.221
2025-11-13 23:09:57.916,-0.017,-1.0,0.074,-0.244,-0.305,0.244,-88.813,3.279,39.221
2025-11-13 23:09:57.916,-0.023,-1.003,0.07,-0.122,-0.305,0.183,-88.813,3.279,39.227
2025-11-13 23:09:57.916,-0.021,-1.002,0.071,-0.549,-0.183,0.671,-88.819,3.279,39.227
2025-11-13 23:09:57.916,-0.017,-1.0,0.073,-0.061,-0.305,0.183,-88.813,3.279,39.232
2025-11-13 23:09:57.916,-0.024,-1.003,0.069,-0.244,-0.244,0.427,-88.813,3.279,39.232
2025-11-13 23:09:57.916,-0.02,-1.002,0.073,-0.488,-0.183,0.61,-88.819,3.285,39.232
2025-11-13 23:09:57.916,-0.02,-1.003,0.072,0.0,-0.305,0.0,-88.813,3.279,39.238
2025-11-13 23:09:57.917,-0.023,-1.004,0.07,-0.488,-0.183,0.549,-88.819,3.279,39.238
2025-11-13 23:09:57.917,-0.022,-1.001,0.071,0.0,-0.305,0.061,-88.819,3.279,39.243
2025-11-13 23:09:57.917,-0.022,-1.002,0.07,-0.549,-0.244,0.671,-88.819,3.279,39.243
2025-11-13 23:09:57.917,-0.018,-1.0,0.074,-0.122,-0.244,0.183,-88.819,3.279,39.249
2025-11-13 23:09:58.074,-0.023,-1.003,0.069,-0.183,-0.244,0.305,-88.819,3.279,39.249
2025-11-13 23:09:58.074,-0.02,-1.001,0.072,-0.549,-0.122,0.61,-88.819,3.279,39.254
2025-11-13 23:09:58.074,-0.019,-1.0,0.073,0.0,-0.305,0.183,-88.819,3.279,39.254
2025-11-13 23:09:58.074,-0.025,-1.005,0.069,-0.366,-0.244,0.549,-88.819,3.279,39.26
2025-11-13 23:09:58.074,-0.018,-1.001,0.075,-0.366,-0.244,0.549,-88.819,3.285,39.26
2025-11-13 23:09:58.074,-0.021,-1.003,0.071,0.0,-0.305,0.122,-88.819,3.285,39.265
2025-11-13 23:09:58.074,-0.023,-1.004,0.07,-0.488,-0.183,0.61,-88.819,3.285,39.265
2025-11-13 23:09:58.074,-0.017,-1.002,0.075,-0.244,-0.244,0.366,-88.819,3.285,39.265
2025-11-13 23:09:58.074,-0.023,-1.002,0.07,-0.061,-0.244,0.122,-88.819,3.285,39.271
2025-11-13 23:09:58.074,-0.021,-1.003,0.072,-0.549,-0.244,0.671,-88.819,3.285,39.271
2025-11-13 23:09:58.074,-0.017,-1.0,0.074,-0.061,-0.305,0.183,-88.819,3.285,39.276
2025-11-13 23:09:58.074,-0.023,-1.002,0.07,-0.183,-0.244,0.366,-88.819,3.285,39.276
2025-11-13 23:09:58.089,-0.02,-1.003,0.073,-0.549,-0.183,0.671,-88.819,3.285,39.282
2025-11-13 23:09:58.090,-0.02,-1.002,0.072,0.0,-0.305,0.122,-88.819,3.285,39.282
2025-11-13 23:09:58.090,-0.024,-1.004,0.068,-0.366,-0.183,0.488,-88.819,3.285,39.287
2025-11-13 23:09:58.090,-0.017,-1.002,0.074,-0.366,-0.244,0.427,-88.819,3.29,39.287
2025-11-13 23:09:58.122,-0.022,-1.003,0.071,0.0,-0.366,0.061,-88.819,3.285,39.293
2025-11-13 23:09:58.122,-0.024,-1.003,0.07,-0.549,-0.244,0.61,-88.819,3.285,39.293
2025-11-13 23:09:58.122,-0.018,-1.0,0.073,-0.183,-0.305,0.305,-88.819,3.29,39.298
2025-11-13 23:09:58.122,-0.023,-1.002,0.069,-0.122,-0.305,0.183,-88.819,3.285,39.298
2025-11-13 23:09:58.224,-0.021,-1.003,0.072,-0.61,-0.183,0.671,-88.819,3.29,39.304
2025-11-13 23:09:58.224,-0.018,-1.0,0.074,-0.061,-0.366,0.061,-88.824,3.29,39.304
2025-11-13 23:09:58.224,-0.024,-1.005,0.069,-0.305,-0.305,0.366,-88.819,3.285,39.309
2025-11-13 23:09:58.224,-0.018,-1.002,0.075,-0.488,-0.244,0.549,-88.824,3.29,39.309
2025-11-13 23:09:58.224,-0.02,-1.002,0.073,0.0,-0.366,0.0,-88.824,3.285,39.315
2025-11-13 23:09:58.224,-0.024,-1.004,0.069,-0.427,-0.183,0.488,-88.824,3.285,39.315
2025-11-13 23:09:58.224,-0.017,-1.002,0.073,-0.244,-0.305,0.366,-88.824,3.285,39.32
2025-11-13 23:09:58.224,-0.021,-1.004,0.071,0.0,-0.305,0.122,-88.824,3.285,39.32
2025-11-13 23:09:58.247,-0.022,-1.004,0.071,-0.549,-0.183,0.61,-88.824,3.285,39.326
2025-11-13 23:09:58.247,-0.017,-1.001,0.074,-0.183,-0.305,0.183,-88.824,3.285,39.326
2025-11-13 23:09:58.247,-0.023,-1.004,0.069,-0.122,-0.244,0.183,-88.824,3.285,39.331
2025-11-13 23:09:58.247,-0.021,-1.003,0.073,-0.488,-0.305,0.61,-88.824,3.285,39.331
2025-11-13 23:09:58.382,-0.018,-1.002,0.073,0.0,-0.305,0.183,-88.824,3.285,39.337
2025-11-13 23:09:58.382,-0.025,-1.006,0.069,-0.305,-0.244,0.549,-88.819,3.285,39.337
2025-11-13 23:09:58.383,-0.019,-1.003,0.073,-0.488,-0.244,0.549,-88.824,3.29,39.342
2025-11-13 23:09:58.383,-0.021,-1.002,0.072,0.0,-0.305,0.061,-88.824,3.29,39.342
2025-11-13 23:09:58.383,-0.023,-1.004,0.07,-0.427,-0.244,0.549,-88.824,3.285,39.348
2025-11-13 23:09:58.383,-0.018,-1.002,0.075,-0.244,-0.305,0.366,-88.824,3.29,39.348
2025-11-13 23:09:58.383,-0.023,-1.004,0.07,-0.061,-0.244,0.122,-88.824,3.285,39.353
2025-11-13 23:09:58.383,-0.022,-1.004,0.071,-0.488,-0.183,0.671,-88.824,3.29,39.353
2025-11-13 23:09:58.383,-0.017,-1.001,0.074,-0.122,-0.305,0.183,-88.824,3.29,39.359
2025-11-13 23:09:58.383,-0.024,-1.006,0.07,-0.183,-0.244,0.305,-88.824,3.29,39.359
2025-11-13 23:09:58.383,-0.021,-1.004,0.072,-0.488,-0.244,0.671,-88.824,3.29,39.364
2025-11-13 23:09:58.383,-0.019,-1.003,0.072,0.0,-0.366,0.0,-88.824,3.29,39.364
2025-11-13 23:09:58.415,-0.024,-1.0,0.07,-0.427,-0.244,0.488,-88.824,3.29,39.37
2025-11-13 23:09:58.415,-0.017,-0.999,0.073,-0.366,-0.244,0.427,-88.824,3.29,39.37
2025-11-13 23:09:58.415,-0.021,-1.001,0.071,-0.061,-0.244,0.122,-88.824,3.29,39.375
2025-11-13 23:09:58.415,-0.023,-1.005,0.07,-0.488,-0.122,0.61,-88.824,3.29,39.375
2025-11-13 23:09:58.548,-0.018,-1.002,0.074,-0.244,-0.305,0.305,-88.824,3.29,39.38
2025-11-13 23:09:58.548,-0.023,-1.004,0.07,-0.122,-0.244,0.183,-88.824,3.29,39.38
2025-11-13 23:09:58.548,-0.022,-1.003,0.071,-0.549,-0.183,0.671,-88.824,3.29,39.38
2025-11-13 23:09:58.548,-0.018,-1.002,0.075,-0.061,-0.244,0.183,-88.824,3.29,39.386
2025-11-13 23:09:58.548,-0.024,-1.004,0.069,-0.305,-0.305,0.427,-88.824,3.29,39.386
2025-11-13 23:09:58.548,-0.02,-1.003,0.073,-0.427,-0.183,0.549,-88.824,3.29,39.391
2025-11-13 23:09:58.548,-0.021,-1.003,0.072,0.0,-0.305,0.0,-88.824,3.29,39.391
2025-11-13 23:09:58.548,-0.025,-1.005,0.07,-0.427,-0.183,0.488,-88.824,3.29,39.397
2025-11-13 23:09:58.548,-0.018,-1.003,0.075,-0.366,-0.305,0.427,-88.824,3.29,39.397
2025-11-13 23:09:58.548,-0.021,-1.003,0.071,-0.061,-0.305,0.122,-88.824,3.29,39.402
2025-11-13 23:09:58.548,-0.022,-1.003,0.071,-0.549,-0.122,0.549,-88.824,3.29,39.402
2025-11-13 23:09:58.548,-0.019,-1.001,0.075,-0.183,-0.244,0.244,-88.83,3.29,39.402
2025-11-13 23:09:58.567,-0.023,-1.005,0.07,-0.122,-0.244,0.244,-88.824,3.29,39.408
2025-11-13 23:09:58.567,-0.02,-1.004,0.072,-0.61,-0.244,0.671,-88.83,3.29,39.408
2025-11-13 23:09:58.567,-0.018,-1.001,0.074,0.0,-0.305,0.061,-88.824,3.29,39.413
2025-11-13 23:09:58.568,-0.025,-1.004,0.07,-0.366,-0.244,0.427,-88.824,3.29,39.413
2025-11-13 23:09:58.696,-0.019,-1.002,0.074,-0.427,-0.183,0.488,-88.83,3.29,39.419
2025-11-13 23:09:58.696,-0.021,-1.002,0.072,0.0,-0.244,0.061,-88.824,3.285,39.419
2025-11-13 23:09:58.696,-0.024,-1.005,0.07,-0.427,-0.183,0.61,-88.83,3.29,39.424
2025-11-13 23:09:58.696,-0.018,-1.002,0.074,-0.305,-0.244,0.427,-88.83,3.29,39.424
2025-11-13 23:09:58.696,-0.021,-1.004,0.071,0.0,-0.305,0.122,-88.824,3.29,39.43
2025-11-13 23:09:58.696,-0.021,-1.003,0.07,-0.549,-0.244,0.671,-88.83,3.29,39.43
2025-11-13 23:09:58.696,-0.018,-1.002,0.074,-0.122,-0.305,0.244,-88.83,3.29,39.435
2025-11-13 23:09:58.696,-0.024,-1.004,0.069,-0.122,-0.244,0.305,-88.824,3.29,39.435
2025-11-13 23:09:58.696,-0.02,-1.002,0.073,-0.488,-0.183,0.671,-88.83,3.296,39.435
2025-11-13 23:09:58.696,-0.019,-1.002,0.073,0.0,-0.305,0.122,-88.824,3.29,39.441
2025-11-13 23:09:58.696,-0.025,-1.004,0.069,-0.366,-0.244,0.427,-88.824,3.29,39.441
2025-11-13 23:09:58.696,-0.019,-1.002,0.074,-0.427,-0.244,0.427,-88.83,3.29,39.446
2025-11-13 23:09:58.726,-0.021,-1.002,0.071,0.0,-0.305,0.061,-88.824,3.29,39.446
2025-11-13 23:09:58.726,-0.023,-1.004,0.07,-0.427,-0.183,0.61,-88.83,3.29,39.452
2025-11-13 23:09:58.726,-0.018,-1.001,0.074,-0.183,-0.183,0.305,-88.83,3.29,39.452
2025-11-13 23:09:58.726,-0.023,-1.003,0.07,-0.061,-0.244,0.122,-88.824,3.29,39.457
2025-11-13 23:09:58.851,-0.022,-1.003,0.071,-0.61,-0.183,0.671,-88.83,3.296,39.457
2025-11-13 23:09:58.852,-0.018,-1.003,0.074,-0.122,-0.305,0.183,-88.83,3.29,39.457
2025-11-13 23:09:58.852,-0.024,-1.005,0.069,-0.244,-0.244,0.305,-88.83,3.29,39.463
2025-11-13 23:09:58.852,-0.019,-1.004,0.073,-0.488,-0.183,0.549,-88.83,3.296,39.463
2025-11-13 23:09:58.852,-0.019,-1.002,0.072,0.061,-0.305,0.061,-88.824,3.29,39.468
2025-11-13 23:09:58.852,-0.024,-1.004,0.069,-0.427,-0.244,0.549,-88.83,3.29,39.468
2025-11-13 23:09:58.852,-0.019,-1.001,0.075,-0.366,-0.244,0.488,-88.83,3.296,39.474
2025-11-13 23:09:58.852,-0.021,-1.002,0.071,0.0,-0.244,0.122,-88.83,3.29,39.474
2025-11-13 23:09:58.852,-0.022,-1.004,0.069,-0.549,-0.122,0.671,-88.83,3.296,39.474
2025-11-13 23:09:58.852,-0.017,-1.002,0.074,-0.183,-0.244,0.244,-88.83,3.296,39.479
2025-11-13 23:09:58.852,-0.024,-1.003,0.071,-0.183,-0.244,0.183,-88.83,3.29,39.479
2025-11-13 23:09:58.852,-0.021,-1.002,0.071,-0.549,-0.122,0.61,-88.83,3.296,39.485
2025-11-13 23:09:58.997,-0.019,-1.001,0.073,-0.061,-0.244,0.122,-88.83,3.29,39.485
2025-11-13 23:09:58.997,-0.024,-1.004,0.069,-0.305,-0.244,0.427,-88.83,3.296,39.485
2025-11-13 23:09:58.997,-0.02,-1.003,0.073,-0.488,-0.244,0.61,-88.835,3.296,39.49
2025-11-13 23:09:58.997,-0.021,-1.004,0.072,0.061,-0.366,0.061,-88.83,3.296,39.496
2025-11-13 23:09:58.997,-0.024,-1.006,0.069,-0.488,-0.244,0.61,-88.83,3.296,39.496
2025-11-13 23:09:58.997,-0.017,-1.003,0.073,-0.305,-0.305,0.427,-88.83,3.296,39.501
2025-11-13 23:09:58.997,-0.021,-1.002,0.07,-0.061,-0.305,0.122,-88.83,3.296,39.501
2025-11-13 23:09:58.997,-0.022,-1.003,0.07,-0.488,-0.183,0.732,-88.835,3.296,39.501
2025-11-13 23:09:58.997,-0.018,-1.003,0.073,-0.122,-0.305,0.244,-88.83,3.296,39.507
2025-11-13 23:09:58.997,-0.024,-1.005,0.069,-0.122,-0.244,0.244,-88.83,3.296,39.507
2025-11-13 23:09:58.998,-0.02,-1.003,0.072,-0.549,-0.183,0.671,-88.835,3.301,39.512
2025-11-13 23:09:58.998,-0.019,-1.003,0.073,0.061,-0.244,0.061,-88.83,3.296,39.512
2025-11-13 23:09:59.015,-0.024,-1.005,0.07,-0.366,-0.183,0.427,-88.83,3.296,39.518
2025-11-13 23:09:59.015,-0.019,-1.002,0.073,-0.427,-0.183,0.488,-88.835,3.301,39.518
2025-11-13 23:09:59.015,-0.021,-1.003,0.072,0.061,-0.244,0.0,-88.83,3.296,39.518
2025-11-13 23:09:59.015,-0.023,-1.004,0.071,-0.488,-0.122,0.61,-88.83,3.296,39.523
2025-11-13 23:09:59.153,-0.018,-1.002,0.075,-0.244,-0.244,0.305,-88.83,3.296,39.523
2025-11-13 23:09:59.153,-0.023,-1.003,0.07,-0.061,-0.305,0.122,-88.83,3.296,39.529
2025-11-13 23:09:59.153,-0.022,-1.001,0.072,-0.549,-0.183,0.671,-88.835,3.301,39.529
2025-11-13 23:09:59.153,-0.019,-1.0,0.074,-0.061,-0.305,0.183,-88.83,3.296,39.534
2025-11-13 23:09:59.154,-0.024,-1.003,0.069,-0.183,-0.305,0.305,-88.83,3.296,39.534
2025-11-13 23:09:59.154,-0.02,-1.002,0.073,-0.549,-0.183,0.61,-88.835,3.301,39.534
2025-11-13 23:09:59.154,-0.019,-1.002,0.074,0.0,-0.305,0.061,-88.83,3.296,39.54
2025-11-13 23:09:59.154,-0.024,-1.005,0.069,-0.427,-0.183,0.549,-88.83,3.296,39.54
2025-11-13 23:09:59.154,-0.019,-1.001,0.073,-0.305,-0.183,0.488,-88.835,3.301,39.545
2025-11-13 23:09:59.154,-0.021,-1.003,0.071,-0.061,-0.305,0.061,-88.83,3.296,39.545
2025-11-13 23:09:59.154,-0.023,-1.002,0.07,-0.61,-0.244,0.671,-88.835,3.301,39.551
2025-11-13 23:09:59.154,-0.017,-1.0,0.074,-0.183,-0.305,0.244,-88.835,3.301,39.551
2025-11-13 23:09:59.165,-0.024,-1.003,0.069,-0.122,-0.244,0.122,-88.83,3.296,39.556
2025-11-13 23:09:59.165,-0.021,-1.003,0.072,-0.549,-0.122,0.671,-88.835,3.301,39.556
2025-11-13 23:09:59.165,-0.019,-1.002,0.073,0.0,-0.366,0.122,-88.835,3.296,39.562
2025-11-13 23:09:59.165,-0.025,-1.003,0.069,-0.305,-0.183,0.427,-88.835,3.301,39.562
2025-11-13 23:09:59.201,-0.019,-1.003,0.073,-0.427,-0.183,0.61,-88.835,3.301,39.562
2025-11-13 23:09:59.201,-0.02,-1.003,0.071,0.061,-0.305,0.0,-88.83,3.296,39.567
2025-11-13 23:09:59.201,-0.024,-1.004,0.07,-0.488,-0.244,0.488,-88.835,3.301,39.567
2025-11-13 23:09:59.201,-0.021,-1.004,0.071,0.0,-0.305,0.122,-88.835,3.296,39.573
2025-11-13 23:09:59.302,-0.022,-1.004,0.071,-0.549,-0.244,0.671,-88.835,3.301,39.573
2025-11-13 23:09:59.302,-0.017,-1.001,0.075,-0.122,-0.244,0.183,-88.835,3.301,39.578
2025-11-13 23:09:59.303,-0.023,-1.003,0.069,-0.122,-0.305,0.183,-88.835,3.296,39.578
2025-11-13 23:09:59.303,-0.02,-1.002,0.072,-0.549,-0.244,0.671,-88.835,3.301,39.584
2025-11-13 23:09:59.303,-0.019,-1.001,0.073,0.061,-0.305,0.0,-88.835,3.301,39.584
2025-11-13 23:09:59.303,-0.025,-1.003,0.069,-0.305,-0.183,0.427,-88.83,3.296,39.589
2025-11-13 23:09:59.303,-0.018,-1.0,0.074,-0.427,-0.183,0.488,-88.835,3.301,39.589
2025-11-13 23:09:59.303,-0.021,-1.0,0.071,0.0,-0.305,0.0,-88.835,3.296,39.595
2025-11-13 23:09:59.320,-0.023,-1.002,0.069,-0.488,-0.183,0.61,-88.835,3.296,39.595
2025-11-13 23:09:59.320,-0.018,-1.0,0.075,-0.183,-0.244,0.305,-88.835,3.296,39.6
2025-11-13 23:09:59.320,-0.023,-1.001,0.069,-0.061,-0.244,0.183,-88.83,3.296,39.6
2025-11-13 23:09:59.320,-0.021,-1.002,0.071,-0.61,-0.183,0.671,-88.835,3.296,39.6
2025-11-13 23:09:59.446,-0.018,-1.002,0.075,0.0,-0.305,0.122,-88.835,3.301,39.606
2025-11-13 23:09:59.446,-0.024,-1.006,0.069,-0.244,-0.244,0.366,-88.83,3.296,39.606
2025-11-13 23:09:59.446,-0.018,-1.004,0.074,-0.488,-0.244,0.549,-88.835,3.301,39.611
2025-11-13 23:09:59.446,-0.02,-1.003,0.072,0.061,-0.244,0.0,-88.835,3.296,39.611
2025-11-13 23:09:59.446,-0.025,-1.002,0.07,-0.427,-0.183,0.488,-88.83,3.296,39.617
2025-11-13 23:09:59.446,-0.018,-1.001,0.075,-0.305,-0.244,0.427,-88.835,3.296,39.617
2025-11-13 23:09:59.446,-0.021,-1.004,0.071,0.0,-0.305,0.061,-88.83,3.296,39.622
2025-11-13 23:09:59.446,-0.023,-1.004,0.071,-0.488,-0.183,0.61,-88.83,3.296,39.622
2025-11-13 23:09:59.465,-0.018,-1.002,0.074,-0.183,-0.305,0.244,-88.835,3.296,39.628
2025-11-13 23:09:59.466,-0.022,-1.003,0.069,-0.061,-0.305,0.183,-88.83,3.296,39.628
2025-11-13 23:09:59.466,-0.021,-1.004,0.072,-0.549,-0.244,0.61,-88.83,3.296,39.633
2025-11-13 23:09:59.466,-0.017,-1.002,0.073,0.0,-0.244,0.061,-88.835,3.296,39.633
2025-11-13 23:09:59.503,-0.024,-1.004,0.068,-0.183,-0.122,0.427,-88.83,3.296,39.633
2025-11-13 23:09:59.504,-0.017,-1.003,0.073,-0.427,-0.244,0.61,-88.83,3.296,39.639
2025-11-13 23:09:59.504,-0.019,-1.003,0.072,0.061,-0.305,0.122,-88.83,3.296,39.639
2025-11-13 23:09:59.504,-0.024,-1.005,0.071,-0.488,-0.183,0.671,-88.83,3.296,39.644
2025-11-13 23:09:59.617,-0.017,-1.001,0.074,-0.305,-0.244,0.488,-88.83,3.301,39.644
2025-11-13 23:09:59.617,-0.023,-1.004,0.07,-0.061,-0.244,0.122,-88.83,3.301,39.65
2025-11-13 23:09:59.617,-0.022,-1.003,0.071,-0.549,-0.122,0.61,-88.83,3.301,39.65
2025-11-13 23:09:59.617,-0.017,-1.001,0.074,-0.122,-0.244,0.183,-88.83,3.301,39.65
2025-11-13 23:09:59.617,-0.025,-1.003,0.069,-0.244,-0.244,0.244,-88.83,3.301,39.655
2025-11-13 23:09:59.617,-0.021,-1.002,0.073,-0.488,-0.244,0.671,-88.835,3.301,39.655
2025-11-13 23:09:59.617,-0.019,-1.002,0.074,0.061,-0.305,0.061,-88.83,3.301,39.661
2025-11-13 23:09:59.617,-0.024,-1.004,0.068,-0.366,-0.244,0.488,-88.83,3.301,39.661
2025-11-13 23:09:59.617,-0.018,-1.002,0.074,-0.427,-0.244,0.549,-88.835,3.301,39.666
2025-11-13 23:09:59.617,-0.021,-1.003,0.071,0.0,-0.305,0.122,-88.83,3.301,39.666
2025-11-13 23:09:59.617,-0.024,-1.005,0.07,-0.488,-0.183,0.671,-88.83,3.301,39.672
2025-11-13 23:09:59.617,-0.017,-1.002,0.075,-0.183,-0.366,0.366,-88.835,3.301,39.672
2025-11-13 23:09:59.645,-0.023,-1.004,0.07,-0.122,-0.305,0.183,-88.83,3.301,39.677
2025-11-13 23:09:59.645,-0.022,-1.003,0.072,-0.61,-0.183,0.671,-88.835,3.301,39.677
2025-11-13 23:09:59.645,-0.018,-1.002,0.075,-0.061,-0.305,0.122,-88.835,3.301,39.683
2025-11-13 23:09:59.646,-0.023,-1.004,0.07,-0.305,-0.305,0.366,-88.835,3.301,39.683
2025-11-13 23:09:59.780,-0.02,-1.003,0.073,-0.488,-0.244,0.671,-88.835,3.301,39.688
2025-11-13 23:09:59.780,-0.02,-1.002,0.072,0.0,-0.366,0.122,-88.835,3.307,39.688
2025-11-13 23:09:59.780,-0.024,-1.004,0.07,-0.427,-0.183,0.549,-88.835,3.307,39.694
2025-11-13 23:09:59.780,-0.017,-1.002,0.074,-0.305,-0.183,0.488,-88.835,3.307,39.694
2025-11-13 23:09:59.780,-0.021,-1.003,0.071,0.0,-0.244,0.122,-88.835,3.307,39.694
2025-11-13 23:09:59.780,-0.023,-1.004,0.07,-0.549,-0.183,0.61,-88.835,3.307,39.699
2025-11-13 23:09:59.780,-0.018,-1.001,0.074,-0.183,-0.305,0.183,-88.835,3.307,39.699
2025-11-13 23:09:59.780,-0.023,-1.004,0.069,-0.122,-0.305,0.244,-88.835,3.307,39.705
2025-11-13 23:09:59.780,-0.02,-1.003,0.072,-0.488,-0.244,0.671,-88.835,3.307,39.705
2025-11-13 23:09:59.780,-0.018,-1.003,0.073,0.0,-0.305,0.061,-88.835,3.307,39.71
2025-11-13 23:09:59.780,-0.024,-1.005,0.069,-0.305,-0.244,0.427,-88.835,3.307,39.71
2025-11-13 23:09:59.780,-0.018,-1.003,0.073,-0.427,-0.244,0.549,-88.835,3.307,39.716
2025-11-13 23:09:59.837,-0.02,-1.003,0.071,0.061,-0.305,0.061,-88.835,3.307,39.716
2025-11-13 23:09:59.837,-0.024,-1.005,0.069,-0.488,-0.244,0.671,-88.835,3.307,39.721
2025-11-13 23:09:59.837,-0.018,-1.001,0.075,-0.244,-0.244,0.366,-88.835,3.307,39.721
2025-11-13 23:09:59.837,-0.022,-1.003,0.071,-0.061,-0.244,0.122,-88.835,3.307,39.727
2025-11-13 23:09:59.939,-0.022,-1.003,0.071,-0.61,-0.183,0.671,-88.835,3.307,39.727
2025-11-13 23:09:59.939,-0.018,-1.001,0.073,-0.061,-0.366,0.183,-88.835,3.307,39.732
2025-11-13 23:09:59.939,-0.024,-1.005,0.069,-0.244,-0.305,0.305,-88.835,3.307,39.732
2025-11-13 23:09:59.939,-0.019,-1.003,0.074,-0.488,-0.244,0.549,-88.835,3.307,39.738
2025-11-13 23:09:59.939,-0.019,-1.003,0.072,0.0,-0.305,0.061,-88.835,3.307,39.738
2025-11-13 23:09:59.939,-0.024,-1.004,0.07,-0.427,-0.244,0.488,-88.835,3.307,39.743
2025-11-13 23:09:59.939,-0.018,-1.002,0.075,-0.366,-0.183,0.427,-88.835,3.307,39.743
2025-11-13 23:09:59.939,-0.022,-1.002,0.071,0.0,-0.305,0.122,-88.835,3.301,39.749
2025-11-13 23:09:59.947,-0.023,-1.004,0.071,-0.549,-0.244,0.671,-88.835,3.307,39.749
2025-11-13 23:09:59.947,-0.016,-1.003,0.073,-0.183,-0.305,0.183,-88.835,3.307,39.754
2025-11-13 23:09:59.947,-0.023,-1.006,0.07,-0.122,-0.244,0.244,-88.835,3.307,39.754
2025-11-13 23:09:59.947,-0.02,-1.005,0.072,-0.488,-0.244,0.671,-88.835,3.307,39.76
2025-11-13 23:09:59.977,-0.02,-1.002,0.073,0.0,-0.305,0.0,-88.835,3.307,39.76
2025-11-13 23:09:59.977,-0.025,-1.006,0.069,-0.305,-0.244,0.427,-88.835,3.307,39.765
2025-11-13 23:09:59.977,-0.018,-1.003,0.074,-0.427,-0.244,0.488,-88.835,3.307,39.765
2025-11-13 23:09:59.977,-0.021,-1.003,0.072,0.0,-0.305,0.061,-88.835,3.301,39.771
2025-11-13 23:10:00.078,-0.022,-1.004,0.071,-0.549,-0.183,0.61,-88.835,3.307,39.771
2025-11-13 23:10:00.078,-0.017,-1.001,0.074,-0.305,-0.244,0.305,-88.835,3.307,39.776
2025-11-13 23:10:00.078,-0.023,-1.004,0.07,-0.061,-0.244,0.122,-88.835,3.301,39.776
2025-11-13 23:10:00.078,-0.021,-1.002,0.072,-0.549,-0.122,0.671,-88.835,3.307,39.776
2025-11-13 23:10:00.078,-0.018,-1.0,0.075,-0.061,-0.305,0.061,-88.835,3.301,39.781
2025-11-13 23:10:00.078,-0.024,-1.004,0.069,-0.244,-0.244,0.305,-88.835,3.301,39.781
2025-11-13 23:10:00.078,-0.019,-1.001,0.073,-0.488,-0.244,0.549,-88.841,3.307,39.787
2025-11-13 23:10:00.078,-0.019,-1.001,0.073,0.061,-0.305,0.061,-88.835,3.301,39.787
2025-11-13 23:10:00.097,-0.024,-1.004,0.069,-0.427,-0.183,0.549,-88.835,3.301,39.792
2025-11-13 23:10:00.097,-0.018,-1.0,0.074,-0.305,-0.244,0.366,-88.835,3.301,39.792
2025-11-13 23:10:00.097,-0.022,-1.003,0.071,0.0,-0.305,0.061,-88.835,3.301,39.798
2025-11-13 23:10:00.097,-0.022,-1.004,0.071,-0.549,-0.183,0.61,-88.835,3.301,39.798
2025-11-13 23:10:00.226,-0.017,-1.001,0.074,-0.244,-0.305,0.244,-88.835,3.301,39.803
2025-11-13 23:10:00.226,-0.023,-1.005,0.07,-0.244,-0.305,0.244,-88.835,3.301,39.803
2025-11-13 23:10:00.226,-0.02,-1.003,0.073,-0.549,-0.183,0.61,-88.841,3.301,39.803
2025-11-13 23:10:00.226,-0.019,-1.001,0.074,0.0,-0.305,0.0,-88.835,3.301,39.809
2025-11-13 23:10:00.226,-0.024,-1.003,0.07,-0.366,-0.244,0.427,-88.841,3.301,39.809
2025-11-13 23:10:00.226,-0.019,-1.0,0.074,-0.488,-0.305,0.549,-88.841,3.301,39.814
2025-11-13 23:10:00.226,-0.021,-1.002,0.071,0.0,-0.366,0.0,-88.841,3.301,39.82
2025-11-13 23:10:00.226,-0.023,-1.003,0.071,-0.549,-0.183,0.549,-88.841,3.301,39.82
2025-11-13 23:10:00.226,-0.017,-1.002,0.075,-0.183,-0.305,0.305,-88.841,3.301,39.825
2025-11-13 23:10:00.226,-0.023,-1.004,0.07,-0.061,-0.244,0.244,-88.841,3.301,39.825
2025-11-13 23:10:00.226,-0.021,-1.003,0.071,-0.549,-0.122,0.671,-88.841,3.301,39.825
2025-11-13 23:10:00.226,-0.018,-1.001,0.074,-0.122,-0.244,0.122,-88.841,3.301,39.831
2025-11-13 23:10:00.256,-0.024,-1.004,0.07,-0.244,-0.183,0.366,-88.841,3.301,39.831
2025-11-13 23:10:00.256,-0.019,-1.001,0.074,-0.488,-0.122,0.549,-88.841,3.301,39.831
2025-11-13 23:10:00.257,-0.02,-1.004,0.072,0.061,-0.305,0.061,-88.841,3.301,39.836
2025-11-13 23:10:00.257,-0.024,-1.005,0.069,-0.427,-0.183,0.427,-88.841,3.301,39.836
2025-11-13 23:10:00.394,-0.018,-1.001,0.074,-0.244,-0.305,0.366,-88.841,3.301,39.842
2025-11-13 23:10:00.394,-0.023,-1.003,0.071,-0.061,-0.305,0.122,-88.841,3.301,39.842
2025-11-13 23:10:00.394,-0.023,-1.006,0.071,-0.549,-0.183,0.61,-88.841,3.301,39.847
2025-11-13 23:10:00.394,-0.017,-1.002,0.074,-0.122,-0.244,0.183,-88.841,3.301,39.847
2025-11-13 23:10:00.394,-0.024,-1.005,0.07,-0.183,-0.244,0.244,-88.841,3.296,39.853
2025-11-13 23:10:00.394,-0.021,-1.003,0.073,-0.549,-0.122,0.61,-88.841,3.301,39.853
2025-11-13 23:10:00.394,-0.019,-1.003,0.073,0.0,-0.305,0.0,-88.841,3.296,39.853
2025-11-13 23:10:00.394,-0.024,-1.004,0.069,-0.427,-0.183,0.488,-88.841,3.301,39.858
2025-11-13 23:10:00.395,-0.018,-1.002,0.074,-0.366,-0.244,0.549,-88.841,3.301,39.858
2025-11-13 23:10:00.395,-0.021,-1.003,0.073,0.0,-0.305,0.122,-88.841,3.301,39.864
2025-11-13 23:10:00.395,-0.023,-1.005,0.07,-0.61,-0.244,0.61,-88.846,3.301,39.864
2025-11-13 23:10:00.395,-0.016,-1.003,0.075,-0.183,-0.305,0.183,-88.841,3.301,39.869
2025-11-13 23:10:00.426,-0.024,-1.004,0.07,-0.061,-0.244,0.122,-88.841,3.296,39.869
2025-11-13 23:10:00.426,-0.021,-1.002,0.073,-0.549,-0.183,0.61,-88.846,3.301,39.875
2025-11-13 23:10:00.426,-0.019,-1.002,0.074,0.0,-0.366,0.122,-88.841,3.296,39.875
2025-11-13 23:10:00.426,-0.026,-1.005,0.068,-0.244,-0.244,0.366,-88.841,3.296,39.88
2025-11-13 23:10:00.565,-0.02,-1.002,0.074,-0.488,-0.183,0.61,-88.846,3.301,39.88
2025-11-13 23:10:00.565,-0.02,-1.003,0.072,0.061,-0.305,0.061,-88.841,3.296,39.886
2025-11-13 23:10:00.565,-0.024,-1.004,0.069,-0.488,-0.183,0.61,-88.841,3.301,39.886
2025-11-13 23:10:00.565,-0.017,-1.003,0.074,-0.244,-0.244,0.427,-88.841,3.301,39.886
2025-11-13 23:10:00.565,-0.022,-1.004,0.071,0.0,-0.305,0.122,-88.841,3.301,39.891
2025-11-13 23:10:00.565,-0.022,-1.004,0.07,-0.61,-0.183,0.671,-88.846,3.301,39.891
2025-11-13 23:10:00.565,-0.018,-1.003,0.075,-0.122,-0.244,0.183,-88.841,3.301,39.897
2025-11-13 23:10:00.565,-0.024,-1.005,0.069,-0.183,-0.183,0.305,-88.841,3.301,39.897
2025-11-13 23:10:00.565,-0.019,-1.001,0.073,0.061,-0.366,0.0,-88.841,3.301,39.902
2025-11-13 23:10:00.565,-0.024,-1.003,0.069,-0.305,-0.244,0.427,-88.841,3.301,39.902
2025-11-13 23:10:00.565,-0.018,-1.002,0.074,-0.366,-0.244,0.488,-88.841,3.301,39.908
2025-11-13 23:10:00.565,-0.021,-1.005,0.072,0.061,-0.305,0.0,-88.841,3.301,39.908
2025-11-13 23:10:00.584,-0.023,-1.004,0.071,-0.549,-0.183,0.61,-88.841,3.296,39.913
2025-11-13 23:10:00.585,-0.018,-1.0,0.074,-0.183,-0.305,0.244,-88.841,3.301,39.913
2025-11-13 23:10:00.585,-0.023,-1.004,0.069,-0.122,-0.305,0.183,-88.841,3.296,39.919
2025-11-13 23:10:00.585,-0.021,-1.003,0.071,-0.61,-0.183,0.671,-88.841,3.301,39.919
2025-11-13 23:10:00.611,-0.018,-1.003,0.074,0.0,-0.305,0.061,-88.841,3.301,39.924
2025-11-13 23:10:00.611,-0.024,-1.005,0.07,-0.305,-0.244,0.427,-88.841,3.296,39.924
2025-11-13 23:10:00.611,-0.018,-1.001,0.073,-0.488,-0.183,0.61,-88.841,3.301,39.93
2025-11-13 23:10:00.611,-0.02,-1.004,0.073,0.061,-0.366,0.061,-88.841,3.301,39.93
2025-11-13 23:10:00.714,-0.024,-1.006,0.069,-0.427,-0.244,0.671,-88.841,3.301,39.935
2025-11-13 23:10:00.714,-0.017,-1.002,0.075,-0.305,-0.305,0.366,-88.841,3.301,39.935
2025-11-13 23:10:00.714,-0.022,-1.001,0.07,0.0,-0.366,0.183,-88.841,3.301,39.941
2025-11-13 23:10:00.714,-0.023,-1.0,0.07,-0.488,-0.183,0.671,-88.841,3.301,39.941
2025-11-13 23:10:00.714,-0.018,-1.001,0.074,-0.061,-0.305,0.183,-88.841,3.301,39.946
2025-11-13 23:10:00.714,-0.024,-1.009,0.07,-0.183,-0.305,0.305,-88.841,3.301,39.946
2025-11-13 23:10:00.714,-0.02,-1.005,0.072,-0.549,-0.244,0.671,-88.841,3.301,39.952
2025-11-13 23:10:00.714,-0.02,-1.0,0.073,0.061,-0.305,0.061,-88.841,3.301,39.952
2025-11-13 23:10:00.735,-0.024,-0.996,0.068,-0.427,-0.183,0.427,-88.841,3.301,39.957
2025-11-13 23:10:00.735,-0.018,-1.011,0.076,-0.488,-0.183,0.61,-88.841,3.301,39.957
2025-11-13 23:10:00.735,-0.021,-1.008,0.072,0.061,-0.305,0.0,-88.841,3.301,39.963
2025-11-13 23:10:00.735,-0.023,-1.005,0.07,-0.549,-0.183,0.732,-88.841,3.301,39.963
2025-11-13 23:10:00.871,-0.018,-0.99,0.074,-0.122,-0.305,0.183,-88.841,3.301,39.968
2025-11-13 23:10:00.871,-0.024,-1.005,0.069,-0.244,-0.244,0.305,-88.841,3.301,39.968
2025-11-13 23:10:00.871,-0.02,-1.007,0.074,-0.549,-0.244,0.61,-88.841,3.301,39.968
2025-11-13 23:10:00.871,-0.018,-1.009,0.073,0.0,-0.305,0.122,-88.841,3.307,39.974
2025-11-13 23:10:00.871,-0.025,-1.001,0.069,-0.305,-0.305,0.366,-88.841,3.301,39.979
2025-11-13 23:10:00.871,-0.018,-0.999,0.073,-0.427,-0.183,0.488,-88.841,3.301,39.979
2025-11-13 23:10:00.871,-0.021,-1.004,0.071,-0.122,-0.305,0.183,-88.841,3.301,39.979
2025-11-13 23:10:00.871,-0.023,-1.012,0.071,-0.488,-0.183,0.61,-88.841,3.307,39.985
2025-11-13 23:10:00.885,-0.018,-1.005,0.076,-0.305,-0.305,0.427,-88.846,3.307,39.985
2025-11-13 23:10:00.885,-0.021,-0.996,0.07,0.0,-0.244,0.183,-88.841,3.307,39.99
2025-11-13 23:10:00.885,-0.023,-0.998,0.07,-0.427,-0.183,0.549,-88.841,3.307,39.99
2025-11-13 23:10:00.885,-0.018,-1.004,0.073,-0.244,-0.244,0.305,-88.846,3.307,39.996
2025-11-13 23:10:01.007,-0.023,-1.014,0.071,-0.244,-0.244,0.305,-88.846,3.307,39.996
2025-11-13 23:10:01.007,-0.021,-1.004,0.074,-0.488,-0.183,0.61,-88.846,3.307,40.001
2025-11-13 23:10:01.007,-0.019,-0.996,0.073,0.061,-0.244,0.061,-88.846,3.307,40.001
2025-11-13 23:10:01.007,-0.025,-0.998,0.069,-0.488,-0.183,0.427,-88.846,3.307,40.001
2025-11-13 23:10:01.007,-0.018,-1.005,0.074,-0.366,-0.244,0.488,-88.846,3.307,40.007
2025-11-13 23:10:01.007,-0.022,-1.007,0.072,0.061,-0.366,0.0,-88.846,3.307,40.007
2025-11-13 23:10:01.007,-0.022,-1.002,0.07,-0.549,-0.122,0.61,-88.846,3.307,40.012
2025-11-13 23:10:01.007,-0.018,-0.997,0.075,-0.122,-0.244,0.244,-88.846,3.307,40.012
2025-11-13 23:10:01.007,-0.023,-1.003,0.069,-0.122,-0.244,0.183,-88.846,3.307,40.018
2025-11-13 23:10:01.007,-0.02,-1.006,0.073,-0.549,-0.244,0.61,-88.846,3.307,40.018
2025-11-13 23:10:01.007,-0.019,-1.004,0.073,0.0,-0.366,0.061,-88.846,3.307,40.023
2025-11-13 23:10:01.007,-0.025,-1.003,0.069,-0.305,-0.244,0.488,-88.846,3.307,40.023
2025-11-13 23:10:01.029,-0.019,-1.0,0.074,-0.427,-0.183,0.549,-88.846,3.307,40.029
2025-11-13 23:10:01.029,-0.021,-1.003,0.072,0.0,-0.244,0.061,-88.846,3.307,40.029
2025-11-13 23:10:01.029,-0.023,-1.005,0.07,-0.488,-0.183,0.61,-88.846,3.307,40.029
2025-11-13 23:10:01.029,-0.018,-1.001,0.074,-0.183,-0.305,0.305,-88.846,3.307,40.034
2025-11-13 23:10:01.169,-0.022,-1.0,0.07,-0.061,-0.244,0.122,-88.846,3.307,40.034
2025-11-13 23:10:01.169,-0.021,-0.999,0.072,-0.549,-0.183,0.61,-88.846,3.307,40.04
2025-11-13 23:10:01.169,-0.018,-1.001,0.075,-0.061,-0.244,0.061,-88.846,3.307,40.04
2025-11-13 23:10:01.169,-0.024,-1.007,0.069,-0.305,-0.244,0.244,-88.846,3.301,40.045
2025-11-13 23:10:01.169,-0.019,-1.005,0.073,-0.488,-0.183,0.61,-88.846,3.301,40.045
2025-11-13 23:10:01.169,-0.02,-1.0,0.072,0.0,-0.305,0.0,-88.846,3.301,40.045
2025-11-13 23:10:01.169,-0.023,-1.003,0.07,-0.427,-0.244,0.549,-88.846,3.301,40.051
2025-11-13 23:10:01.169,-0.017,-0.998,0.074,-0.366,-0.244,0.366,-88.846,3.301,40.051
2025-11-13 23:10:01.169,-0.023,-1.005,0.072,0.061,-0.244,0.061,-88.846,3.301,40.056
2025-11-13 23:10:01.169,-0.022,-1.004,0.07,-0.61,-0.183,0.732,-88.846,3.301,40.056
2025-11-13 23:10:01.169,-0.017,-1.0,0.075,-0.061,-0.305,0.122,-88.846,3.301,40.062
2025-11-13 23:10:01.169,-0.025,-1.001,0.069,-0.244,-0.183,0.305,-88.846,3.301,40.062
2025-11-13 23:10:01.175,-0.021,-1.001,0.073,-0.488,-0.183,0.549,-88.846,3.301,40.062
2025-11-13 23:10:01.175,-0.018,-1.004,0.073,0.0,-0.244,0.0,-88.846,3.301,40.067
2025-11-13 23:10:01.175,-0.024,-1.0,0.069,-0.305,-0.244,0.366,-88.846,3.301,40.067
2025-11-13 23:10:01.175,-0.019,-1.002,0.073,-0.427,-0.183,0.549,-88.846,3.307,40.073
2025-11-13 23:10:01.312,-0.021,-1.01,0.072,-0.061,-0.366,0.061,-88.846,3.301,40.073
2025-11-13 23:10:01.312,-0.023,-1.004,0.07,-0.366,-0.305,0.488,-88.846,3.301,40.078
2025-11-13 23:10:01.312,-0.018,-0.999,0.072,-0.244,-0.244,0.366,-88.846,3.301,40.078
2025-11-13 23:10:01.312,-0.022,-1.0,0.07,-0.183,-0.244,0.305,-88.846,3.301,40.084
2025-11-13 23:10:01.312,-0.021,-1.005,0.072,-0.488,-0.183,0.61,-88.846,3.307,40.084
2025-11-13 23:10:01.312,-0.019,-1.004,0.073,-0.122,-0.305,0.122,-88.846,3.301,40.089
2025-11-13 23:10:01.313,-0.024,-1.003,0.07,-0.244,-0.244,0.366,-88.846,3.301,40.089
2025-11-13 23:10:01.313,-0.019,-1.0,0.074,-0.488,-0.244,0.61,-88.852,3.307,40.095
2025-11-13 23:10:01.313,-0.021,-1.001,0.073,0.0,-0.305,0.0,-88.846,3.301,40.095
2025-11-13 23:10:01.313,-0.024,-1.007,0.069,-0.549,-0.183,0.549,-88.852,3.307,40.1
2025-11-13 23:10:01.313,-0.016,-1.005,0.075,-0.366,-0.183,0.427,-88.852,3.307,40.1
2025-11-13 23:10:01.313,-0.023,-1.003,0.07,-0.061,-0.305,0.122,-88.846,3.301,40.1
2025-11-13 23:10:01.457,-0.021,-1.002,0.069,-0.549,-0.244,0.732,-88.852,3.307,40.106
2025-11-13 23:10:01.458,-0.018,-0.994,0.073,0.061,-0.366,0.061,-88.846,3.301,40.111
2025-11-13 23:10:01.458,-0.024,-1.02,0.069,-0.61,-0.122,0.671,-88.852,3.307,40.111
2025-11-13 23:10:01.458,-0.019,-0.998,0.075,-0.244,-0.305,0.305,-88.852,3.307,40.111
2025-11-13 23:10:01.458,-0.021,-1.007,0.071,-0.183,-0.244,0.305,-88.852,3.307,40.117
2025-11-13 23:10:01.458,-0.024,-0.985,0.071,-0.427,-0.244,0.427,-88.852,3.307,40.117
2025-11-13 23:10:01.458,-0.019,-1.006,0.074,-0.366,-0.122,0.488,-88.852,3.307,40.117
2025-11-13 23:10:01.458,-0.021,-1.006,0.073,-0.122,-0.366,0.122,-88.852,3.307,40.122
2025-11-13 23:10:01.458,-0.023,-1.01,0.067,-0.488,-0.122,0.61,-88.857,3.307,40.122
2025-11-13 23:10:01.458,-0.017,-1.002,0.078,-0.122,-0.305,0.244,-88.852,3.307,40.128
2025-11-13 23:10:01.458,-0.023,-0.999,0.067,-0.244,-0.305,0.244,-88.852,3.307,40.133
2025-11-13 23:10:01.458,-0.021,-1.006,0.073,-0.488,-0.244,0.671,-88.857,3.307,40.133
2025-11-13 23:10:01.476,-0.018,-1.003,0.072,-0.122,-0.244,0.122,-88.852,3.307,40.133
2025-11-13 23:10:01.476,-0.023,-1.002,0.069,-0.122,-0.244,0.366,-88.852,3.307,40.139
2025-11-13 23:10:01.476,-0.021,-0.996,0.073,-0.366,-0.244,0.427,-88.852,3.307,40.139
2025-11-13 23:10:01.476,-0.016,-1.017,0.072,-0.488,-0.061,0.549,-88.857,3.312,40.139
2025-11-13 23:10:01.586,-0.027,-1.006,0.072,0.183,-0.427,0.122,-88.852,3.307,40.144
2025-11-13 23:10:01.586,-0.017,-1.006,0.07,-0.793,-0.061,0.916,-88.857,3.312,40.144
2025-11-13 23:10:01.586,-0.021,-0.99,0.074,0.366,-0.427,-0.244,-88.852,3.307,40.15
2025-11-13 23:10:01.586,-0.023,-1.004,0.066,-0.977,-0.061,0.977,-88.857,3.312,40.15
2025-11-13 23:10:01.586,-0.017,-1.006,0.08,0.122,-0.366,0.0,-88.852,3.312,40.155
2025-11-13 23:10:01.586,-0.027,-1.008,0.066,-0.305,-0.244,0.305,-88.852,3.307,40.155
2025-11-13 23:10:01.586,-0.018,-1.001,0.076,-0.427,-0.244,0.671,-88.857,3.312,40.161
2025-11-13 23:10:01.587,-0.021,-0.997,0.071,0.122,-0.305,-0.122,-88.852,3.307,40.161
2025-11-13 23:10:01.604,-0.023,-1.002,0.07,-0.549,-0.122,0.732,-88.857,3.312,40.166
2025-11-13 23:10:01.604,-0.018,-1.006,0.075,-0.244,-0.244,0.244,-88.857,3.312,40.166
2025-11-13 23:10:01.604,-0.021,-1.007,0.07,-0.061,-0.244,0.244,-88.852,3.307,40.172
2025-11-13 23:10:01.604,-0.023,-0.999,0.072,-0.366,-0.244,0.549,-88.852,3.312,40.172
2025-11-13 23:10:01.626,-0.018,-0.998,0.073,-0.305,-0.183,0.366,-88.852,3.312,40.172
2025-11-13 23:10:01.626,-0.024,-1.003,0.07,-0.183,-0.305,0.122,-88.852,3.307,40.177
2025-11-13 23:10:01.626,-0.02,-1.006,0.072,-0.671,-0.183,0.671,-88.857,3.312,40.177
2025-11-13 23:10:01.626,-0.019,-1.001,0.074,0.061,-0.366,0.0,-88.852,3.307,40.182
2025-11-13 23:10:01.742,-0.025,-0.999,0.067,-0.305,-0.244,0.366,-88.857,3.307,40.182
2025-11-13 23:10:01.742,-0.018,-0.998,0.074,-0.549,-0.183,0.671,-88.857,3.312,40.188
2025-11-13 23:10:01.742,-0.02,-1.002,0.073,0.061,-0.305,-0.061,-88.852,3.307,40.188
2025-11-13 23:10:01.742,-0.024,-1.007,0.069,-0.427,-0.244,0.549,-88.857,3.312,40.193
2025-11-13 23:10:01.742,-0.017,-1.002,0.075,-0.183,-0.305,0.305,-88.857,3.312,40.193
2025-11-13 23:10:01.742,-0.022,-1.001,0.07,-0.061,-0.305,0.122,-88.852,3.307,40.199
2025-11-13 23:10:01.742,-0.022,-1.001,0.071,-0.61,-0.244,0.732,-88.857,3.312,40.199
2025-11-13 23:10:01.742,-0.018,-1.002,0.074,-0.061,-0.244,0.122,-88.857,3.307,40.204
2025-11-13 23:10:01.745,-0.024,-1.004,0.068,-0.183,-0.183,0.305,-88.852,3.307,40.204
2025-11-13 23:10:01.746,-0.019,-1.0,0.072,-0.488,-0.183,0.549,-88.857,3.312,40.21
2025-11-13 23:10:01.746,-0.019,-0.999,0.072,0.0,-0.305,0.0,-88.852,3.307,40.21
2025-11-13 23:10:01.746,-0.023,-1.008,0.071,-0.427,-0.244,0.549,-88.857,3.307,40.215
2025-11-13 23:10:01.876,-0.018,-1.008,0.075,-0.305,-0.183,0.427,-88.857,3.307,40.215
2025-11-13 23:10:01.876,-0.021,-1.004,0.071,0.0,-0.305,0.061,-88.852,3.307,40.215
2025-11-13 23:10:01.876,-0.024,-1.002,0.07,-0.427,-0.244,0.671,-88.857,3.312,40.221
2025-11-13 23:10:01.876,-0.017,-0.996,0.075,-0.244,-0.305,0.305,-88.857,3.307,40.221
2025-11-13 23:10:01.876,-0.023,-1.002,0.071,-0.061,-0.305,0.122,-88.852,3.307,40.226
2025-11-13 23:10:01.876,-0.02,-0.999,0.071,-0.61,-0.122,0.671,-88.857,3.312,40.226
2025-11-13 23:10:01.876,-0.024,-1.0,0.069,-0.183,-0.305,0.244,-88.852,3.307,40.232
2025-11-13 23:10:01.876,-0.02,-1.001,0.073,-0.427,-0.183,0.488,-88.857,3.307,40.232
2025-11-13 23:10:01.876,-0.02,-1.0,0.073,0.0,-0.305,-0.061,-88.852,3.307,40.237
2025-11-13 23:10:01.876,-0.025,-1.007,0.069,-0.427,-0.122,0.488,-88.852,3.307,40.237
2025-11-13 23:10:01.876,-0.018,-1.002,0.075,-0.244,-0.244,0.305,-88.857,3.307,40.237
2025-11-13 23:10:01.876,-0.022,-1.002,0.07,0.0,-0.244,0.0,-88.852,3.307,40.243
2025-11-13 23:10:01.897,-0.022,-1.001,0.071,-0.488,-0.305,0.488,-88.852,3.301,40.243
2025-11-13 23:10:01.897,-0.017,-1.005,0.074,-0.122,-0.366,0.061,-88.852,3.301,40.248
2025-11-13 23:10:01.897,-0.024,-1.007,0.069,-0.122,-0.305,0.244,-88.852,3.301,40.254
2025-11-13 23:10:01.897,-0.02,-1.004,0.072,-0.549,-0.244,0.549,-88.852,3.301,40.254
2025-11-13 23:10:02.026,-0.019,-1.001,0.074,0.0,-0.244,0.0,-88.852,3.301,40.259
2025-11-13 23:10:02.026,-0.025,-1.002,0.07,-0.427,-0.183,0.366,-88.852,3.301,40.259
2025-11-13 23:10:02.026,-0.019,-1.004,0.074,-0.488,-0.244,0.488,-88.857,3.301,40.259
2025-11-13 23:10:02.026,-0.021,-1.003,0.071,0.0,-0.427,0.061,-88.852,3.301,40.265
2025-11-13 23:10:02.026,-0.023,-1.004,0.069,-0.488,-0.183,0.671,-88.852,3.301,40.27
2025-11-13 23:10:02.026,-0.018,-0.998,0.075,-0.244,-0.305,0.244,-88.857,3.301,40.27
2025-11-13 23:10:02.026,-0.023,-1.002,0.069,-0.061,-0.305,0.061,-88.852,3.296,40.276
2025-11-13 23:10:02.026,-0.022,-1.008,0.072,-0.61,-0.244,0.671,-88.857,3.296,40.276
2025-11-13 23:10:02.026,-0.017,-1.001,0.074,0.0,-0.305,0.0,-88.857,3.296,40.281
2025-11-13 23:10:02.026,-0.024,-1.002,0.068,-0.244,-0.244,0.366,-88.852,3.296,40.281
2025-11-13 23:10:02.026,-0.021,-0.999,0.073,-0.549,-0.244,0.549,-88.857,3.296,40.287
2025-11-13 23:10:02.026,-0.02,-1.003,0.073,0.061,-0.366,0.0,-88.857,3.296,40.287
2025-11-13 23:10:02.080,-0.024,-1.006,0.069,-0.427,-0.183,0.549,-88.852,3.296,40.292
2025-11-13 23:10:02.080,-0.019,-1.003,0.075,-0.366,-0.305,0.427,-88.857,3.296,40.292
2025-11-13 23:10:02.080,-0.022,-1.001,0.07,0.061,-0.305,0.061,-88.852,3.296,40.298
2025-11-13 23:10:02.081,-0.022,-1.002,0.071,-0.549,-0.244,0.671,-88.852,3.296,40.298
2025-11-13 23:10:02.184,-0.018,-1.001,0.075,-0.122,-0.305,0.305,-88.857,3.296,40.303
2025-11-13 23:10:02.184,-0.023,-1.008,0.07,-0.122,-0.305,0.244,-88.852,3.296,40.303
2025-11-13 23:10:02.184,-0.021,-1.004,0.072,-0.488,-0.183,0.549,-88.852,3.296,40.309
2025-11-13 23:10:02.184,-0.019,-1.0,0.074,0.061,-0.305,0.122,-88.852,3.296,40.309
2025-11-13 23:10:02.184,-0.024,-1.002,0.068,-0.366,-0.244,0.427,-88.852,3.296,40.314
2025-11-13 23:10:02.184,-0.018,-1.004,0.074,-0.488,-0.244,0.549,-88.852,3.301,40.314
2025-11-13 23:10:02.184,-0.02,-1.007,0.073,0.0,-0.366,0.061,-88.852,3.296,40.32
2025-11-13 23:10:02.184,-0.023,-1.005,0.069,-0.488,-0.244,0.549,-88.852,3.296,40.32
2025-11-13 23:10:02.200,-0.017,-0.997,0.074,-0.244,-0.244,0.366,-88.857,3.301,40.325
2025-11-13 23:10:02.200,-0.023,-1.004,0.071,-0.061,-0.305,0.244,-88.852,3.301,40.325
2025-11-13 23:10:02.200,-0.021,-1.007,0.071,-0.549,-0.183,0.671,-88.852,3.301,40.331
2025-11-13 23:10:02.200,-0.018,-1.004,0.074,-0.061,-0.244,0.122,-88.857,3.301,40.331
2025-11-13 23:10:02.326,-0.023,-1.003,0.07,-0.244,-0.244,0.305,-88.852,3.301,40.336
2025-11-13 23:10:02.326,-0.02,-1.001,0.072,-0.488,-0.183,0.549,-88.857,3.301,40.336
2025-11-13 23:10:02.326,-0.019,-1.002,0.073,0.0,-0.305,0.061,-88.852,3.301,40.336
2025-11-13 23:10:02.326,-0.023,-1.005,0.07,-0.305,-0.244,0.427,-88.852,3.296,40.342
2025-11-13 23:10:02.326,-0.019,-1.002,0.074,-0.427,-0.305,0.488,-88.852,3.301,40.342
2025-11-13 23:10:02.326,-0.021,-1.002,0.072,-0.061,-0.244,0.061,-88.852,3.296,40.347
2025-11-13 23:10:02.326,-0.023,-1.001,0.07,-0.427,-0.183,0.549,-88.852,3.296,40.347
2025-11-13 23:10:02.326,-0.019,-1.001,0.073,-0.244,-0.244,0.366,-88.857,3.301,40.353
2025-11-13 23:10:02.326,-0.022,-1.004,0.07,-0.061,-0.244,0.183,-88.852,3.296,40.353
2025-11-13 23:10:02.326,-0.021,-1.002,0.071,-0.488,-0.183,0.549,-88.852,3.296,40.358
2025-11-13 23:10:02.326,-0.018,-1.003,0.074,-0.183,-0.244,0.244,-88.857,3.301,40.358
2025-11-13 23:10:02.326,-0.024,-1.002,0.07,-0.183,-0.244,0.305,-88.852,3.296,40.358
2025-11-13 23:10:02.346,-0.02,-1.001,0.073,-0.488,-0.183,0.61,-88.857,3.301,40.364
2025-11-13 23:10:02.346,-0.019,-1.003,0.073,0.0,-0.305,0.061,-88.852,3.301,40.364
2025-11-13 23:10:02.346,-0.023,-1.004,0.069,-0.427,-0.244,0.427,-88.852,3.296,40.369
2025-11-13 23:10:02.346,-0.018,-1.003,0.074,-0.305,-0.244,0.427,-88.857,3.301,40.369
2025-11-13 23:10:02.477,-0.021,-1.003,0.071,-0.061,-0.244,0.122,-88.852,3.296,40.375
2025-11-13 23:10:02.477,-0.023,-1.004,0.071,-0.488,-0.244,0.61,-88.852,3.296,40.375
2025-11-13 23:10:02.477,-0.018,-1.002,0.075,-0.183,-0.244,0.183,-88.857,3.301,40.38
2025-11-13 23:10:02.477,-0.024,-1.006,0.07,-0.183,-0.244,0.122,-88.852,3.296,40.38
2025-11-13 23:10:02.477,-0.021,-1.003,0.072,-0.549,-0.183,0.549,-88.857,3.296,40.38
2025-11-13 23:10:02.477,-0.018,-1.002,0.074,0.0,-0.305,0.061,-88.857,3.296,40.386
2025-11-13 23:10:02.477,-0.024,-1.005,0.069,-0.305,-0.244,0.366,-88.852,3.296,40.386
2025-11-13 23:10:02.477,-0.019,-1.006,0.074,-0.488,-0.244,0.549,-88.857,3.296,40.391
2025-11-13 23:10:02.477,-0.02,-1.004,0.072,0.061,-0.305,0.061,-88.857,3.296,40.391
2025-11-13 23:10:02.477,-0.023,-1.001,0.07,-0.488,-0.183,0.549,-88.857,3.296,40.397
2025-11-13 23:10:02.477,-0.018,-0.993,0.074,-0.183,-0.305,0.122,-88.852,3.29,40.397
2025-11-13 23:10:02.477,-0.022,-1.008,0.07,-0.305,-0.244,0.244,-88.852,3.29,40.402
2025-11-13 23:10:02.631,-0.021,-1.008,0.073,-0.366,-0.183,0.427,-88.857,3.29,40.402
2025-11-13 23:10:02.631,-0.019,-1.006,0.073,-0.183,-0.305,0.244,-88.857,3.29,40.408
2025-11-13 23:10:02.631,-0.022,-1.001,0.071,-0.244,-0.305,0.305,-88.857,3.29,40.408
2025-11-13 23:10:02.631,-0.019,-1.0,0.072,-0.549,-0.183,0.61,-88.857,3.296,40.413
2025-11-13 23:10:02.631,-0.02,-1.003,0.075,0.122,-0.305,0.0,-88.852,3.29,40.413
2025-11-13 23:10:02.631,-0.022,-1.003,0.068,-0.427,-0.183,0.427,-88.857,3.29,40.419
2025-11-13 23:10:02.631,-0.02,-1.007,0.074,-0.305,-0.244,0.488,-88.857,3.29,40.419
2025-11-13 23:10:02.631,-0.018,-1.003,0.071,-0.183,-0.244,0.305,-88.857,3.29,40.424
2025-11-13 23:10:02.631,-0.026,-1.008,0.07,-0.244,-0.244,0.488,-88.857,3.29,40.424
2025-11-13 23:10:02.631,-0.016,-0.999,0.073,-0.488,-0.183,0.549,-88.857,3.296,40.424
2025-11-13 23:10:02.631,-0.022,-1.003,0.072,0.183,-0.305,0.0,-88.852,3.29,40.43
2025-11-13 23:10:02.631,-0.022,-0.995,0.069,-0.732,-0.122,0.671,-88.857,3.296,40.43
2025-11-13 23:10:02.646,-0.017,-1.005,0.076,0.0,-0.305,0.122,-88.857,3.29,40.435
2025-11-13 23:10:02.646,-0.024,-1.012,0.069,-0.366,-0.244,0.427,-88.857,3.29,40.435
2025-11-13 23:10:02.646,-0.021,-1.003,0.074,-0.366,-0.244,0.488,-88.857,3.296,40.441
2025-11-13 23:10:02.646,-0.019,-0.994,0.072,0.0,-0.244,0.061,-88.852,3.29,40.441
2025-11-13 23:10:02.680,-0.025,-1.006,0.07,-0.427,-0.305,0.549,-88.857,3.296,40.446
2025-11-13 23:10:02.681,-0.017,-1.006,0.074,-0.549,-0.244,0.488,-88.857,3.296,40.446
2025-11-13 23:10:02.681,-0.023,-1.01,0.072,0.244,-0.366,-0.122,-88.852,3.29,40.452
2025-11-13 23:10:02.681,-0.021,-0.995,0.069,-0.793,-0.244,0.854,-88.857,3.296,40.452
2025-11-13 23:10:02.782,-0.019,-1.006,0.076,0.0,-0.305,0.244,-88.857,3.296,40.457
2025-11-13 23:10:02.782,-0.022,-1.005,0.07,-0.366,-0.183,0.366,-88.857,3.296,40.457
2025-11-13 23:10:02.782,-0.021,-1.008,0.073,-0.366,-0.183,0.549,-88.857,3.296,40.457
2025-11-13 23:10:02.782,-0.019,-0.999,0.073,-0.183,-0.305,0.244,-88.857,3.296,40.463
2025-11-13 23:10:02.782,-0.023,-0.993,0.07,-0.183,-0.305,0.244,-88.857,3.296,40.468
2025-11-13 23:10:02.782,-0.019,-0.991,0.073,-0.488,-0.183,0.488,-88.857,3.296,40.468
2025-11-13 23:10:02.782,-0.019,-1.01,0.074,-0.061,-0.244,0.061,-88.857,3.29,40.468
2025-11-13 23:10:02.782,-0.024,-1.012,0.07,-0.183,-0.183,0.183,-88.857,3.29,40.474
2025-11-13 23:10:02.795,-0.017,-1.022,0.073,-0.671,-0.122,0.854,-88.863,3.296,40.474
2025-11-13 23:10:02.795,-0.021,-1.0,0.075,0.061,-0.366,0.061,-88.857,3.29,40.479
2025-11-13 23:10:02.795,-0.022,-0.989,0.069,-0.488,-0.183,0.671,-88.857,3.296,40.479
2025-11-13 23:10:02.795,-0.019,-0.991,0.076,-0.122,-0.244,0.244,-88.857,3.296,40.479
2025-11-13 23:10:02.832,-0.023,-1.008,0.067,-0.183,-0.244,0.244,-88.857,3.296,40.485
2025-11-13 23:10:02.832,-0.021,-1.011,0.073,-0.549,-0.183,0.732,-88.863,3.296,40.485
2025-11-13 23:10:02.832,-0.017,-1.003,0.075,0.122,-0.366,0.0,-88.857,3.296,40.49
2025-11-13 23:10:02.832,-0.023,-0.995,0.069,-0.305,-0.244,0.488,-88.857,3.296,40.49
2025-11-13 23:10:02.938,-0.019,-0.998,0.075,-0.427,-0.244,0.427,-88.857,3.296,40.496
2025-11-13 23:10:02.938,-0.02,-1.016,0.073,-0.183,-0.244,0.183,-88.857,3.296,40.496
2025-11-13 23:10:02.938,-0.023,-1.008,0.07,-0.366,-0.244,0.488,-88.857,3.296,40.501
2025-11-13 23:10:02.938,-0.016,-0.993,0.074,-0.183,-0.244,0.305,-88.857,3.296,40.501
2025-11-13 23:10:02.938,-0.023,-0.993,0.071,-0.061,-0.244,0.061,-88.857,3.29,40.507
2025-11-13 23:10:02.938,-0.021,-1.004,0.073,-0.671,-0.183,0.671,-88.857,3.296,40.507
2025-11-13 23:10:02.938,-0.018,-1.015,0.077,0.0,-0.305,0.122,-88.857,3.29,40.512
2025-11-13 23:10:02.938,-0.023,-1.004,0.068,-0.305,-0.244,0.305,-88.857,3.29,40.512
2025-11-13 23:10:02.945,-0.02,-0.996,0.073,-0.366,-0.183,0.488,-88.857,3.296,40.512
2025-11-13 23:10:02.946,-0.021,-1.0,0.072,-0.122,-0.305,0.061,-88.857,3.29,40.518
2025-11-13 23:10:02.946,-0.023,-1.012,0.071,-0.427,-0.122,0.488,-88.857,3.29,40.518
2025-11-13 23:10:02.946,-0.02,-1.011,0.073,-0.305,-0.244,0.488,-88.857,3.296,40.523
2025-11-13 23:10:03.081,-0.022,-0.997,0.071,0.0,-0.366,0.183,-88.857,3.29,40.523
2025-11-13 23:10:03.081,-0.021,-0.997,0.071,-0.61,-0.183,0.671,-88.863,3.296,40.529
2025-11-13 23:10:03.081,-0.019,-1.001,0.076,-0.122,-0.305,0.244,-88.857,3.296,40.529
2025-11-13 23:10:03.081,-0.023,-1.011,0.07,-0.183,-0.244,0.244,-88.857,3.29,40.534
2025-11-13 23:10:03.081,-0.021,-1.005,0.073,-0.427,-0.244,0.549,-88.857,3.296,40.534
2025-11-13 23:10:03.082,-0.018,-0.999,0.074,-0.061,-0.244,0.122,-88.857,3.29,40.54
2025-11-13 23:10:03.082,-0.022,-0.999,0.069,-0.305,-0.244,0.366,-88.857,3.29,40.54
2025-11-13 23:10:03.082,-0.019,-1.003,0.074,-0.488,-0.244,0.488,-88.863,3.296,40.54
2025-11-13 23:10:03.082,-0.021,-1.011,0.073,0.0,-0.366,0.061,-88.857,3.29,40.545
2025-11-13 23:10:03.082,-0.023,-1.014,0.071,-0.488,-0.244,0.61,-88.863,3.296,40.551
2025-11-13 23:10:03.082,-0.017,-1.001,0.075,-0.183,-0.305,0.305,-88.857,3.296,40.551
2025-11-13 23:10:03.082,-0.022,-0.993,0.069,0.0,-0.366,0.122,-88.857,3.29,40.556
2025-11-13 23:10:03.235,-0.022,-0.996,0.07,-0.671,-0.183,0.671,-88.863,3.296,40.556
2025-11-13 23:10:03.235,-0.017,-1.009,0.077,-0.244,-0.305,0.244,-88.863,3.296,40.562
2025-11-13 23:10:03.235,-0.022,-1.01,0.07,-0.061,-0.305,0.244,-88.857,3.29,40.562
2025-11-13 23:10:03.235,-0.02,-0.994,0.073,-0.366,-0.183,0.488,-88.857,3.296,40.567
2025-11-13 23:10:03.235,-0.021,-1.004,0.07,-0.427,-0.122,0.427,-88.857,3.29,40.567
2025-11-13 23:10:03.235,-0.021,-1.016,0.075,-0.183,-0.244,0.427,-88.857,3.296,40.567
2025-11-13 23:10:03.235,-0.019,-1.002,0.07,-0.305,-0.244,0.305,-88.857,3.296,40.573
2025-11-13 23:10:03.235,-0.022,-1.0,0.072,-0.183,-0.305,0.366,-88.857,3.296,40.573
2025-11-13 23:10:03.235,-0.02,-0.995,0.073,-0.427,-0.244,0.427,-88.857,3.296,40.578
2025-11-13 23:10:03.235,-0.022,-1.002,0.072,0.061,-0.305,-0.061,-88.857,3.29,40.578
2025-11-13 23:10:03.235,-0.022,-1.005,0.07,-0.671,-0.122,0.671,-88.857,3.29,40.583
2025-11-13 23:10:03.235,-0.017,-1.012,0.075,-0.122,-0.305,0.305,-88.863,3.29,40.583
2025-11-13 23:10:03.251,-0.024,-1.008,0.071,-0.244,-0.183,0.366,-88.863,3.29,40.589
2025-11-13 23:10:03.251,-0.02,-0.994,0.073,-0.366,-0.244,0.488,-88.863,3.296,40.589
2025-11-13 23:10:03.251,-0.021,-0.991,0.071,-0.122,-0.305,0.122,-88.863,3.296,40.589
2025-11-13 23:10:03.251,-0.021,-1.014,0.07,-0.61,-0.122,0.549,-88.863,3.296,40.594
2025-11-13 23:10:03.282,-0.02,-1.013,0.077,-0.061,-0.305,0.244,-88.863,3.296,40.594
2025-11-13 23:10:03.282,-0.023,-1.001,0.066,-0.305,-0.244,0.427,-88.863,3.296,40.6
2025-11-13 23:10:03.282,-0.021,-0.999,0.075,-0.366,-0.244,0.549,-88.863,3.296,40.6
2025-11-13 23:10:03.282,-0.017,-0.992,0.072,-0.244,-0.244,0.183,-88.863,3.296,40.605
2025-11-13 23:10:03.388,-0.021,-1.012,0.073,0.0,-0.305,0.122,-88.863,3.29,40.605
2025-11-13 23:10:03.388,-0.022,-1.007,0.069,-0.732,-0.183,0.732,-88.863,3.296,40.611
2025-11-13 23:10:03.388,-0.016,-1.004,0.075,-0.061,-0.366,0.305,-88.863,3.296,40.611
2025-11-13 23:10:03.388,-0.024,-0.997,0.069,-0.244,-0.244,0.305,-88.863,3.296,40.616
2025-11-13 23:10:03.388,-0.019,-1.0,0.073,-0.488,-0.122,0.549,-88.863,3.296,40.616
2025-11-13 23:10:03.388,-0.02,-1.006,0.074,-0.061,-0.305,0.061,-88.863,3.296,40.616
2025-11-13 23:10:03.388,-0.024,-1.006,0.07,-0.366,-0.183,0.427,-88.863,3.296,40.622
2025-11-13 23:10:03.388,-0.018,-0.99,0.074,-0.244,-0.244,0.244,-88.863,3.296,40.622
2025-11-13 23:10:03.395,-0.02,-1.008,0.074,-0.122,-0.305,0.122,-88.863,3.29,40.627
2025-11-13 23:10:03.395,-0.025,-1.013,0.071,-0.427,-0.305,0.549,-88.863,3.29,40.627
2025-11-13 23:10:03.395,-0.017,-1.011,0.072,-0.366,-0.244,0.671,-88.863,3.296,40.633
2025-11-13 23:10:03.395,-0.021,-1.002,0.072,-0.122,-0.305,0.244,-88.863,3.296,40.633
2025-11-13 23:10:03.435,-0.019,-0.992,0.074,-0.366,-0.183,0.244,-88.863,3.296,40.638
2025-11-13 23:10:03.435,-0.021,-0.997,0.073,0.0,-0.305,0.0,-88.863,3.29,40.638
2025-11-13 23:10:03.435,-0.025,-1.013,0.066,-0.61,-0.244,0.671,-88.863,3.29,40.644
2025-11-13 23:10:03.435,-0.018,-1.009,0.074,-0.549,-0.183,0.732,-88.868,3.296,40.644
2025-11-13 23:10:03.542,-0.019,-1.001,0.074,0.183,-0.366,-0.122,-88.863,3.296,40.649
2025-11-13 23:10:03.543,-0.024,-0.994,0.072,-0.366,-0.183,0.488,-88.863,3.296,40.649
2025-11-13 23:10:03.543,-0.017,-1.0,0.073,-0.305,-0.183,0.305,-88.863,3.296,40.655
2025-11-13 23:10:03.543,-0.022,-1.009,0.071,0.0,-0.305,0.0,-88.863,3.29,40.655
2025-11-13 23:10:03.543,-0.022,-1.011,0.071,-0.732,-0.122,0.793,-88.863,3.29,40.655
2025-11-13 23:10:03.543,-0.018,-1.006,0.077,0.061,-0.366,0.061,-88.863,3.296,40.66
2025-11-13 23:10:03.543,-0.024,-1.0,0.068,-0.305,-0.183,0.427,-88.863,3.29,40.66
2025-11-13 23:10:03.543,-0.02,-1.005,0.073,-0.488,-0.244,0.671,-88.863,3.296,40.666
2025-11-13 23:10:03.546,-0.017,-1.001,0.071,-0.183,-0.366,0.244,-88.868,3.296,40.666
2025-11-13 23:10:03.546,-0.022,-1.004,0.07,-0.244,-0.244,0.366,-88.863,3.296,40.671
2025-11-13 23:10:03.546,-0.019,-0.995,0.072,-0.427,-0.183,0.366,-88.868,3.296,40.671
2025-11-13 23:10:03.546,-0.022,-1.003,0.072,0.0,-0.244,0.122,-88.863,3.296,40.677
2025-11-13 23:10:03.617,-0.022,-1.003,0.071,-0.549,-0.183,0.488,-88.863,3.296,40.677
2025-11-13 23:10:03.618,-0.016,-1.004,0.074,-0.122,-0.305,0.244,-88.868,3.296,40.682
2025-11-13 23:10:03.618,-0.021,-1.01,0.073,-0.183,-0.183,0.305,-88.863,3.29,40.682
2025-11-13 23:10:03.618,-0.02,-1.007,0.072,-0.488,-0.244,0.61,-88.868,3.296,40.682
2025-11-13 23:10:03.733,-0.018,-1.001,0.073,-0.122,-0.244,0.244,-88.868,3.296,40.688
2025-11-13 23:10:03.733,-0.023,-0.996,0.07,-0.244,-0.305,0.305,-88.863,3.296,40.688
2025-11-13 23:10:03.733,-0.02,-1.003,0.073,-0.549,-0.183,0.61,-88.868,3.296,40.693
2025-11-13 23:10:03.733,-0.019,-1.007,0.074,0.061,-0.305,0.061,-88.868,3.296,40.693
2025-11-13 23:10:03.733,-0.024,-1.007,0.068,-0.305,-0.122,0.488,-88.863,3.296,40.699
2025-11-13 23:10:03.733,-0.018,-1.008,0.074,-0.427,-0.183,0.61,-88.868,3.296,40.699
2025-11-13 23:10:03.733,-0.022,-1.0,0.071,0.061,-0.366,0.183,-88.863,3.296,40.704
2025-11-13 23:10:03.733,-0.023,-0.993,0.069,-0.488,-0.183,0.549,-88.863,3.296,40.704
2025-11-13 23:10:03.733,-0.019,-0.995,0.075,-0.244,-0.305,0.244,-88.868,3.296,40.704
2025-11-13 23:10:03.733,-0.022,-1.009,0.069,-0.305,-0.244,0.366,-88.868,3.296,40.71
2025-11-13 23:10:03.733,-0.02,-1.008,0.073,-0.366,-0.244,0.488,-88.868,3.296,40.71
2025-11-13 23:10:03.733,-0.019,-0.998,0.071,0.061,-0.305,0.061,-88.863,3.296,40.715
2025-11-13 23:10:03.762,-0.023,-0.994,0.07,-0.305,-0.305,0.488,-88.863,3.296,40.721
2025-11-13 23:10:03.762,-0.019,-1.002,0.074,-0.488,-0.183,0.488,-88.863,3.296,40.721
2025-11-13 23:10:03.762,-0.02,-1.004,0.072,0.061,-0.366,-0.061,-88.863,3.296,40.721
2025-11-13 23:10:03.762,-0.023,-1.017,0.07,-0.671,-0.183,0.916,-88.863,3.296,40.726
2025-11-13 23:10:03.889,-0.018,-0.998,0.075,-0.061,-0.366,0.122,-88.868,3.296,40.732
2025-11-13 23:10:03.890,-0.023,-0.999,0.068,-0.183,-0.122,0.366,-88.863,3.296,40.732
2025-11-13 23:10:03.890,-0.021,-0.991,0.073,-0.427,-0.244,0.427,-88.868,3.301,40.732
2025-11-13 23:10:03.890,-0.02,-1.005,0.072,-0.122,-0.244,0.183,-88.868,3.296,40.737
2025-11-13 23:10:03.890,-0.023,-1.015,0.072,-0.305,-0.183,0.427,-88.868,3.296,40.737
2025-11-13 23:10:03.890,-0.019,-1.006,0.073,-0.305,-0.244,0.427,-88.868,3.301,40.737
2025-11-13 23:10:03.890,-0.021,-0.992,0.072,0.0,-0.305,0.122,-88.863,3.296,40.743
2025-11-13 23:10:03.890,-0.022,-0.997,0.07,-0.488,-0.183,0.488,-88.868,3.296,40.743
2025-11-13 23:10:03.890,-0.018,-0.996,0.075,-0.183,-0.305,0.244,-88.863,3.296,40.748
2025-11-13 23:10:03.890,-0.023,-1.024,0.07,-0.244,-0.244,0.549,-88.863,3.301,40.748
2025-11-13 23:10:03.890,-0.019,-1.0,0.072,-0.488,-0.244,0.549,-88.868,3.301,40.754
2025-11-13 23:10:03.890,-0.019,-0.996,0.075,0.183,-0.366,0.061,-88.863,3.296,40.759
2025-11-13 23:10:04.046,-0.024,-0.987,0.067,-0.305,-0.305,0.305,-88.863,3.296,40.759
2025-11-13 23:10:04.046,-0.022,-1.013,0.072,-0.61,-0.183,0.793,-88.868,3.301,40.759
2025-11-13 23:10:04.046,-0.018,-1.011,0.073,-0.183,-0.305,0.183,-88.868,3.301,40.765
2025-11-13 23:10:04.046,-0.021,-1.009,0.07,-0.244,-0.244,0.427,-88.868,3.301,40.765
2025-11-13 23:10:04.046,-0.02,-0.993,0.074,-0.366,-0.305,0.427,-88.868,3.301,40.77
2025-11-13 23:10:04.046,-0.022,-0.991,0.07,-0.061,-0.305,0.0,-88.863,3.296,40.776
2025-11-13 23:10:04.046,-0.021,-0.998,0.07,-0.61,-0.183,0.549,-88.868,3.301,40.776
2025-11-13 23:10:04.046,-0.016,-1.006,0.076,0.0,-0.366,-0.061,-88.863,3.296,40.781
2025-11-13 23:10:04.046,-0.022,-1.021,0.069,-0.366,-0.244,0.427,-88.868,3.296,40.781
2025-11-13 23:10:04.046,-0.021,-1.002,0.073,-0.183,-0.366,0.366,-88.863,3.296,40.787
2025-11-13 23:10:04.046,-0.02,-1.006,0.071,-0.427,-0.183,0.671,-88.868,3.301,40.787
2025-11-13 23:10:04.046,-0.022,-0.994,0.074,-0.122,-0.305,0.244,-88.868,3.301,40.792
2025-11-13 23:10:04.064,-0.021,-1.002,0.072,-0.488,-0.122,0.671,-88.868,3.301,40.792
2025-11-13 23:10:04.064,-0.019,-1.004,0.076,0.0,-0.244,0.183,-88.863,3.301,40.792
2025-11-13 23:10:04.064,-0.024,-1.01,0.067,-0.366,-0.183,0.549,-88.868,3.301,40.798
2025-11-13 23:10:04.064,-0.018,-1.003,0.074,-0.305,-0.244,0.488,-88.868,3.301,40.798
2025-11-13 23:10:04.195,-0.022,-0.996,0.071,-0.122,-0.366,0.122,-88.863,3.301,40.803
2025-11-13 23:10:04.195,-0.021,-0.995,0.071,-0.488,-0.183,0.549,-88.868,3.301,40.803
2025-11-13 23:10:04.196,-0.019,-1.006,0.074,-0.122,-0.305,0.122,-88.868,3.301,40.809
2025-11-13 23:10:04.196,-0.022,-1.008,0.068,-0.244,-0.305,0.244,-88.868,3.301,40.809
2025-11-13 23:10:04.196,-0.02,-1.004,0.071,-0.488,-0.244,0.488,-88.868,3.301,40.814
2025-11-13 23:10:04.196,-0.018,-0.99,0.073,-0.061,-0.305,0.061,-88.868,3.296,40.814
2025-11-13 23:10:04.196,-0.023,-1.004,0.07,-0.366,-0.244,0.427,-88.868,3.301,40.82
2025-11-13 23:10:04.196,-0.02,-1.025,0.074,-0.61,-0.183,0.793,-88.868,3.301,40.82
2025-11-13 23:10:04.196,-0.019,-1.005,0.072,0.122,-0.305,0.061,-88.868,3.301,40.825
2025-11-13 23:10:04.196,-0.024,-0.987,0.069,-0.244,-0.183,0.427,-88.868,3.301,40.825
2025-11-13 23:10:04.196,-0.018,-0.983,0.073,-0.366,-0.244,0.305,-88.868,3.301,40.825
2025-11-13 23:10:04.196,-0.023,-1.01,0.072,-0.061,-0.305,0.122,-88.863,3.296,40.831
2025-11-13 23:10:04.211,-0.021,-1.014,0.07,-0.61,-0.183,0.671,-88.868,3.301,40.831
2025-11-13 23:10:04.211,-0.017,-1.014,0.075,0.0,-0.305,0.244,-88.868,3.301,40.836
2025-11-13 23:10:04.211,-0.022,-0.992,0.07,-0.183,-0.183,0.244,-88.863,3.301,40.836
2025-11-13 23:10:04.211,-0.019,-0.994,0.073,-0.488,-0.183,0.488,-88.868,3.301,40.842
2025-11-13 23:10:04.246,-0.019,-1.002,0.073,-0.183,-0.244,0.122,-88.868,3.296,40.842
2025-11-13 23:10:04.246,-0.024,-1.014,0.07,-0.366,-0.244,0.549,-88.868,3.301,40.847
2025-11-13 23:10:04.246,-0.018,-0.999,0.074,-0.305,-0.244,0.366,-88.868,3.301,40.847
2025-11-13 23:10:04.246,-0.023,-0.999,0.071,0.061,-0.305,0.061,-88.863,3.296,40.853
2025-11-13 23:10:04.348,-0.019,-0.993,0.07,-0.488,-0.183,0.488,-88.868,3.301,40.853
2025-11-13 23:10:04.348,-0.021,-1.029,0.074,-0.122,-0.244,0.366,-88.868,3.301,40.853
2025-11-13 23:10:04.348,-0.021,-0.997,0.066,-0.366,-0.244,0.305,-88.868,3.296,40.858
2025-11-13 23:10:04.348,-0.021,-1.008,0.074,-0.366,-0.183,0.61,-88.868,3.301,40.858
2025-11-13 23:10:04.348,-0.018,-0.988,0.074,-0.183,-0.244,0.183,-88.868,3.301,40.864
2025-11-13 23:10:04.348,-0.024,-1.006,0.067,-0.183,-0.183,0.305,-88.868,3.301,40.864
2025-11-13 23:10:04.348,-0.02,-1.0,0.073,-0.61,-0.183,0.61,-88.868,3.301,40.864
2025-11-13 23:10:04.348,-0.019,-1.002,0.071,0.0,-0.244,0.061,-88.868,3.296,40.869
2025-11-13 23:10:04.366,-0.023,-0.998,0.072,-0.366,-0.244,0.366,-88.868,3.296,40.869
2025-11-13 23:10:04.366,-0.017,-1.013,0.074,-0.366,-0.183,0.366,-88.868,3.301,40.875
2025-11-13 23:10:04.366,-0.022,-0.997,0.07,0.0,-0.244,0.061,-88.868,3.296,40.875
2025-11-13 23:10:04.366,-0.021,-1.018,0.07,-0.671,-0.183,0.793,-88.868,3.301,40.875
2025-11-13 23:10:04.490,-0.017,-0.994,0.076,-0.122,-0.366,0.122,-88.868,3.296,40.88
2025-11-13 23:10:04.490,-0.024,-1.011,0.069,-0.122,-0.244,0.366,-88.868,3.296,40.88
2025-11-13 23:10:04.490,-0.02,-0.985,0.075,-0.305,-0.305,0.305,-88.868,3.296,40.886
2025-11-13 23:10:04.490,-0.023,-0.996,0.067,-0.122,-0.183,0.122,-88.868,3.296,40.886
2025-11-13 23:10:04.490,-0.02,-1.009,0.076,-0.671,-0.122,0.671,-88.868,3.296,40.891
2025-11-13 23:10:04.490,-0.022,-0.998,0.071,0.122,-0.366,0.061,-88.868,3.296,40.891
2025-11-13 23:10:04.490,-0.021,-0.996,0.069,-0.549,-0.183,0.671,-88.868,3.296,40.897
2025-11-13 23:10:04.490,-0.017,-0.987,0.075,-0.183,-0.305,0.122,-88.868,3.296,40.897
2025-11-13 23:10:04.490,-0.023,-1.018,0.07,-0.427,-0.183,0.488,-88.868,3.296,40.902
2025-11-13 23:10:04.490,-0.018,-1.014,0.075,-0.366,-0.244,0.427,-88.868,3.296,40.902
2025-11-13 23:10:04.490,-0.02,-1.003,0.07,0.0,-0.244,0.122,-88.868,3.296,40.902
2025-11-13 23:10:04.490,-0.023,-0.993,0.072,-0.305,-0.244,0.488,-88.868,3.296,40.908
2025-11-13 23:10:04.649,-0.021,-0.998,0.073,-0.549,-0.183,0.488,-88.868,3.296,40.908
2025-11-13 23:10:04.649,-0.021,-1.007,0.074,0.0,-0.244,0.061,-88.868,3.296,40.913
2025-11-13 23:10:04.649,-0.023,-1.0,0.07,-0.366,-0.244,0.366,-88.868,3.296,40.913
2025-11-13 23:10:04.649,-0.018,-0.995,0.074,0.0,-0.244,0.183,-88.868,3.296,40.919
2025-11-13 23:10:04.649,-0.023,-1.014,0.07,-0.427,-0.183,0.427,-88.868,3.296,40.919
2025-11-13 23:10:04.649,-0.018,-1.004,0.074,-0.366,-0.244,0.427,-88.868,3.296,40.919
2025-11-13 23:10:04.649,-0.021,-1.013,0.073,0.0,-0.305,0.183,-88.868,3.296,40.924
2025-11-13 23:10:04.649,-0.021,-0.997,0.07,-0.427,-0.244,0.488,-88.868,3.296,40.924
2025-11-13 23:10:04.649,-0.021,-0.996,0.073,-0.183,-0.244,0.427,-88.868,3.296,40.93
2025-11-13 23:10:04.649,-0.021,-0.995,0.071,-0.305,-0.244,0.305,-88.868,3.296,40.93
2025-11-13 23:10:04.649,-0.021,-1.001,0.072,-0.244,-0.244,0.366,-88.868,3.296,40.935
2025-11-13 23:10:04.649,-0.019,-1.013,0.074,-0.427,-0.183,0.488,-88.868,3.296,40.935
2025-11-13 23:10:04.663,-0.021,-1.001,0.073,0.183,-0.305,0.0,-88.868,3.296,40.941
2025-11-13 23:10:04.663,-0.023,-1.01,0.069,-0.732,-0.122,0.916,-88.868,3.296,40.941
2025-11-13 23:10:04.663,-0.016,-0.986,0.075,0.0,-0.366,-0.061,-88.868,3.296,40.941
2025-11-13 23:10:04.663,-0.024,-1.002,0.068,-0.366,-0.183,0.427,-88.868,3.296,40.946
2025-11-13 23:10:04.803,-0.019,-0.998,0.076,-0.366,-0.305,0.366,-88.868,3.296,40.946
2025-11-13 23:10:04.803,-0.022,-1.016,0.071,-0.122,-0.305,0.366,-88.868,3.296,40.952
2025-11-13 23:10:04.803,-0.021,-1.002,0.072,-0.305,-0.305,0.427,-88.868,3.296,40.957
2025-11-13 23:10:04.803,-0.02,-0.994,0.072,-0.183,-0.244,0.366,-88.868,3.296,40.957
2025-11-13 23:10:04.803,-0.021,-1.0,0.073,-0.183,-0.244,0.244,-88.868,3.296,40.963
2025-11-13 23:10:04.803,-0.021,-1.011,0.071,-0.427,-0.244,0.427,-88.868,3.296,40.963
2025-11-13 23:10:04.803,-0.019,-1.003,0.073,-0.122,-0.305,0.305,-88.868,3.296,40.968
2025-11-13 23:10:04.803,-0.022,-1.008,0.07,-0.244,-0.244,0.427,-88.868,3.296,40.968
2025-11-13 23:10:04.803,-0.019,-0.996,0.075,-0.488,-0.244,0.61,-88.868,3.301,40.968
2025-11-13 23:10:04.803,-0.019,-1.005,0.075,0.122,-0.305,0.061,-88.868,3.296,40.974
2025-11-13 23:10:04.803,-0.024,-0.999,0.066,-0.366,-0.305,0.488,-88.868,3.296,40.979
2025-11-13 23:10:04.803,-0.02,-1.007,0.073,-0.427,-0.244,0.549,-88.868,3.301,40.979
2025-11-13 23:10:04.805,-0.019,-1.002,0.074,-0.244,-0.305,0.183,-88.868,3.301,40.984
2025-11-13 23:10:04.806,-0.022,-1.0,0.071,-0.305,-0.183,0.427,-88.868,3.301,40.984
2025-11-13 23:10:04.806,-0.019,-1.0,0.075,-0.305,-0.183,0.305,-88.868,3.301,40.984
2025-11-13 23:10:04.806,-0.022,-1.005,0.069,-0.183,-0.244,0.244,-88.868,3.296,40.99
2025-11-13 23:10:04.836,-0.021,-1.001,0.071,-0.427,-0.244,0.488,-88.868,3.296,40.99
2025-11-13 23:10:04.836,-0.017,-1.0,0.074,-0.122,-0.305,0.122,-88.868,3.296,40.995
2025-11-13 23:10:04.836,-0.021,-0.996,0.072,-0.122,-0.305,0.122,-88.868,3.296,40.995
2025-11-13 23:10:04.836,-0.024,-1.014,0.072,-0.244,-0.305,0.488,-88.868,3.296,41.001
2025-11-13 23:10:04.974,-0.02,-1.011,0.07,-0.61,-0.244,0.61,-88.868,3.296,41.001
2025-11-13 23:10:04.974,-0.021,-1.014,0.076,-0.183,-0.305,0.366,-88.868,3.296,41.006
2025-11-13 23:10:04.974,-0.018,-0.99,0.072,-0.305,-0.244,0.305,-88.868,3.296,41.006
2025-11-13 23:10:04.974,-0.023,-0.999,0.071,0.122,-0.244,0.061,-88.868,3.296,41.012
2025-11-13 23:10:04.974,-0.022,-0.998,0.067,-0.793,-0.183,0.854,-88.868,3.296,41.012
2025-11-13 23:10:04.974,-0.015,-1.01,0.076,-0.183,-0.305,0.305,-88.868,3.301,41.017
2025-11-13 23:10:04.974,-0.023,-1.006,0.07,-0.244,-0.366,0.244,-88.868,3.301,41.017
2025-11-13 23:10:04.974,-0.02,-1.003,0.073,-0.366,-0.183,0.488,-88.868,3.301,41.023
2025-11-13 23:10:04.974,-0.021,-1.0,0.072,0.0,-0.305,0.122,-88.868,3.301,41.023
2025-11-13 23:10:04.974,-0.022,-1.006,0.069,-0.488,-0.183,0.61,-88.868,3.301,41.028
2025-11-13 23:10:04.974,-0.018,-1.003,0.075,-0.305,-0.244,0.366,-88.868,3.301,41.028
2025-11-13 23:10:04.974,-0.021,-1.004,0.071,-0.122,-0.244,0.244,-88.868,3.301,41.034
2025-11-13 23:10:05.127,-0.022,-1.0,0.071,-0.366,-0.244,0.427,-88.868,3.301,41.034
2025-11-13 23:10:05.127,-0.019,-1.003,0.073,-0.244,-0.244,0.305,-88.868,3.301,41.034
2025-11-13 23:10:05.127,-0.021,-1.007,0.071,-0.061,-0.244,0.305,-88.868,3.301,41.039
2025-11-13 23:10:05.127,-0.02,-1.004,0.071,-0.366,-0.183,0.488,-88.868,3.301,41.039
2025-11-13 23:10:05.127,-0.019,-1.0,0.074,-0.061,-0.244,0.183,-88.868,3.301,41.045
2025-11-13 23:10:05.127,-0.022,-1.002,0.07,-0.244,-0.183,0.366,-88.868,3.296,41.045
2025-11-13 23:10:05.127,-0.021,-1.001,0.074,-0.305,-0.305,0.488,-88.868,3.301,41.05
2025-11-13 23:10:05.127,-0.021,-1.0,0.072,-0.061,-0.244,0.122,-88.868,3.296,41.05
2025-11-13 23:10:05.137,-0.022,-0.996,0.071,-0.305,-0.183,0.305,-88.863,3.296,41.056
2025-11-13 23:10:05.137,-0.021,-1.007,0.073,-0.366,-0.244,0.427,-88.868,3.296,41.056
2025-11-13 23:10:05.137,-0.02,-1.011,0.073,-0.183,-0.244,0.183,-88.868,3.296,41.056
2025-11-13 23:10:05.137,-0.023,-1.012,0.07,-0.427,-0.183,0.488,-88.868,3.296,41.061
2025-11-13 23:10:05.138,-0.017,-0.997,0.074,-0.122,-0.305,0.183,-88.868,3.296,41.061
2025-11-13 23:10:05.138,-0.021,-0.998,0.069,-0.244,-0.305,0.305,-88.868,3.296,41.067
2025-11-13 23:10:05.138,-0.019,-0.998,0.072,-0.427,-0.122,0.488,-88.868,3.296,41.067
2025-11-13 23:10:05.138,-0.02,-1.005,0.073,-0.183,-0.244,0.244,-88.868,3.296,41.072
2025-11-13 23:10:05.171,-0.023,-1.006,0.07,-0.366,-0.183,0.305,-88.868,3.296,41.072
2025-11-13 23:10:05.171,-0.02,-1.001,0.074,-0.305,-0.305,0.305,-88.868,3.296,41.072
2025-11-13 23:10:05.171,-0.021,-1.004,0.072,-0.122,-0.305,0.183,-88.868,3.296,41.078
2025-11-13 23:10:05.171,-0.021,-1.009,0.072,-0.427,-0.244,0.549,-88.868,3.296,41.078
2025-11-13 23:10:05.273,-0.019,-1.002,0.073,-0.183,-0.305,0.244,-88.868,3.296,41.083
2025-11-13 23:10:05.273,-0.022,-0.996,0.07,-0.183,-0.305,0.244,-88.868,3.296,41.089
2025-11-13 23:10:05.273,-0.021,-0.987,0.072,-0.366,-0.244,0.366,-88.868,3.296,41.089
2025-11-13 23:10:05.273,-0.019,-1.005,0.074,-0.244,-0.244,0.244,-88.868,3.29,41.094
2025-11-13 23:10:05.273,-0.023,-1.021,0.071,-0.305,-0.244,0.427,-88.868,3.296,41.094
2025-11-13 23:10:05.273,-0.018,-1.009,0.072,-0.427,-0.244,0.549,-88.868,3.296,41.094
2025-11-13 23:10:05.273,-0.021,-0.996,0.074,0.122,-0.366,0.183,-88.863,3.296,41.1
2025-11-13 23:10:05.273,-0.021,-0.985,0.069,-0.549,-0.122,0.549,-88.868,3.296,41.1
2025-11-13 23:10:05.287,-0.02,-1.001,0.074,-0.183,-0.183,0.366,-88.868,3.296,41.105
2025-11-13 23:10:05.287,-0.021,-1.004,0.07,-0.305,-0.183,0.244,-88.868,3.296,41.105
2025-11-13 23:10:05.287,-0.021,-1.004,0.072,-0.183,-0.305,0.305,-88.868,3.296,41.111
2025-11-13 23:10:05.287,-0.019,-1.003,0.073,-0.305,-0.305,0.305,-88.868,3.296,41.111
2025-11-13 23:10:05.426,-0.022,-1.005,0.072,-0.061,-0.305,0.244,-88.868,3.29,41.116
2025-11-13 23:10:05.426,-0.02,-1.006,0.071,-0.549,-0.122,0.488,-88.868,3.296,41.116
2025-11-13 23:10:05.427,-0.023,-1.008,0.075,0.122,-0.305,0.183,-88.863,3.29,41.122
2025-11-13 23:10:05.427,-0.023,-0.987,0.066,-0.61,-0.122,0.61,-88.868,3.296,41.122
2025-11-13 23:10:05.427,-0.017,-1.007,0.079,-0.244,-0.244,0.427,-88.868,3.296,41.122
2025-11-13 23:10:05.427,-0.022,-1.0,0.069,-0.183,-0.366,0.122,-88.868,3.296,41.127
2025-11-13 23:10:05.427,-0.022,-1.009,0.071,-0.244,-0.305,0.488,-88.868,3.296,41.127
2025-11-13 23:10:05.427,-0.021,-0.991,0.071,-0.244,-0.305,0.244,-88.868,3.296,41.133
2025-11-13 23:10:05.427,-0.021,-1.001,0.07,-0.366,-0.244,0.488,-88.868,3.296,41.133
2025-11-13 23:10:05.427,-0.021,-1.006,0.075,-0.366,-0.244,0.305,-88.868,3.296,41.138
2025-11-13 23:10:05.427,-0.02,-1.005,0.072,-0.061,-0.305,0.122,-88.868,3.29,41.138
2025-11-13 23:10:05.427,-0.021,-1.007,0.071,-0.366,-0.244,0.488,-88.868,3.296,41.144
2025-11-13 23:10:05.566,-0.021,-1.0,0.072,-0.305,-0.305,0.366,-88.868,3.296,41.144
2025-11-13 23:10:05.566,-0.02,-1.002,0.072,-0.183,-0.183,0.366,-88.868,3.296,41.149
2025-11-13 23:10:05.566,-0.022,-1.003,0.071,-0.305,-0.244,0.305,-88.868,3.296,41.149
2025-11-13 23:10:05.566,-0.02,-1.007,0.074,-0.366,-0.183,0.488,-88.868,3.296,41.155
2025-11-13 23:10:05.566,-0.021,-1.001,0.072,-0.061,-0.305,0.061,-88.868,3.29,41.155
2025-11-13 23:10:05.566,-0.023,-0.998,0.069,-0.366,-0.244,0.427,-88.868,3.296,41.16
2025-11-13 23:10:05.566,-0.019,-1.001,0.074,-0.244,-0.183,0.305,-88.868,3.29,41.16
2025-11-13 23:10:05.566,-0.021,-1.012,0.07,-0.244,-0.244,0.244,-88.868,3.29,41.16
2025-11-13 23:10:05.566,-0.018,-1.008,0.073,-0.366,-0.244,0.488,-88.868,3.296,41.166
2025-11-13 23:10:05.566,-0.021,-1.005,0.073,-0.061,-0.244,0.244,-88.868,3.29,41.166
2025-11-13 23:10:05.566,-0.022,-0.996,0.069,-0.427,-0.183,0.549,-88.868,3.296,41.171
2025-11-13 23:10:05.566,-0.021,-0.999,0.074,-0.244,-0.305,0.366,-88.868,3.296,41.171
2025-11-13 23:10:05.601,-0.021,-1.0,0.071,-0.366,-0.183,0.366,-88.868,3.296,41.177
2025-11-13 23:10:05.601,-0.021,-1.005,0.071,-0.244,-0.183,0.305,-88.868,3.296,41.177
2025-11-13 23:10:05.601,-0.02,-1.004,0.073,-0.183,-0.183,0.244,-88.868,3.29,41.177
2025-11-13 23:10:05.601,-0.021,-1.007,0.071,-0.183,-0.244,0.305,-88.868,3.29,41.182
2025-11-13 23:10:05.619,-0.021,-1.008,0.072,-0.427,-0.244,0.488,-88.868,3.296,41.182
2025-11-13 23:10:05.619,-0.021,-1.002,0.073,-0.183,-0.305,0.244,-88.868,3.29,41.188
2025-11-13 23:10:05.619,-0.021,-0.995,0.07,-0.366,-0.244,0.366,-88.868,3.296,41.188
2025-11-13 23:10:05.619,-0.021,-1.006,0.073,-0.427,-0.244,0.488,-88.868,3.296,41.193
2025-11-13 23:10:05.720,-0.021,-1.007,0.074,-0.122,-0.305,0.183,-88.868,3.29,41.193
2025-11-13 23:10:05.720,-0.023,-1.007,0.069,-0.305,-0.305,0.366,-88.868,3.29,41.199
2025-11-13 23:10:05.720,-0.02,-0.997,0.073,-0.366,-0.244,0.427,-88.868,3.296,41.199
2025-11-13 23:10:05.720,-0.021,-1.0,0.072,-0.061,-0.183,0.244,-88.868,3.29,41.204
2025-11-13 23:10:05.720,-0.021,-1.005,0.072,-0.488,-0.244,0.549,-88.868,3.296,41.204
2025-11-13 23:10:05.720,-0.02,-1.009,0.074,-0.183,-0.305,0.305,-88.868,3.296,41.21
2025-11-13 23:10:05.720,-0.022,-1.002,0.07,-0.183,-0.305,0.366,-88.868,3.296,41.21
2025-11-13 23:10:05.720,-0.02,-0.999,0.072,-0.305,-0.244,0.427,-88.868,3.296,41.215
2025-11-13 23:10:05.744,-0.019,-1.0,0.074,-0.244,-0.244,0.244,-88.868,3.296,41.215
2025-11-13 23:10:05.744,-0.021,-1.004,0.07,-0.305,-0.244,0.305,-88.868,3.296,41.221
2025-11-13 23:10:05.744,-0.02,-1.008,0.074,-0.305,-0.244,0.427,-88.868,3.296,41.221
2025-11-13 23:10:05.744,-0.022,-1.002,0.072,-0.366,-0.244,0.427,-88.868,3.296,41.221
2025-11-13 23:10:05.866,-0.02,-0.993,0.073,-0.183,-0.244,0.183,-88.868,3.296,41.226
2025-11-13 23:10:05.866,-0.021,-1.01,0.07,-0.183,-0.244,0.366,-88.868,3.29,41.226
2025-11-13 23:10:05.866,-0.022,-1.005,0.071,-0.549,-0.244,0.549,-88.868,3.296,41.232
2025-11-13 23:10:05.866,-0.018,-1.009,0.076,-0.183,-0.305,0.366,-88.868,3.296,41.232
2025-11-13 23:10:05.866,-0.022,-0.996,0.072,-0.183,-0.244,0.244,-88.868,3.296,41.237
2025-11-13 23:10:05.866,-0.021,-1.0,0.07,-0.244,-0.183,0.427,-88.868,3.296,41.237
2025-11-13 23:10:05.866,-0.021,-1.001,0.073,-0.305,-0.244,0.305,-88.868,3.296,41.243
2025-11-13 23:10:05.866,-0.02,-1.007,0.069,-0.305,-0.244,0.366,-88.868,3.296,41.243
